{
  "run": {
    "sheet": "study_design",
    "status": "done",
    "started_at": "2026-09-13T21:38:18.368439Z",
    "finished_at": "2026-09-13T21:38:40.867353Z",
    "input_hash": "329b53f0178da31ca9e6741817b2ce10a460b7400c31f125c7a70963cca33e26",
    "postprocess_version": "1+verify4",
    "reprocessed": false,
    "section_ids": [
      "title-page",
      "fm-protocol-summary",
      "sec-3",
      "sec-5",
      "sec-5.1",
      "sec-5.2",
      "sec-5.6"
    ],
    "usage": {
      "model": "claude-sonnet-5",
      "input_tokens": 14548,
      "output_tokens": 2812,
      "cache_creation_input_tokens": 0,
      "cache_read_input_tokens": 0,
      "latency_seconds": 22.46,
      "cost_usd": 0.057216,
      "stop_reason": "end_turn",
      "request_id": null
    },
    "error": null,
    "warnings": []
  },
  "records": {
    "name": {
      "value": "Study Design 1",
      "provenance": {
        "origin": "derived",
        "source_section_id": null,
        "source_page": null,
        "raw_phrase": null,
        "confidence": 1.0,
        "verified": true,
        "note": "the single study design of this protocol",
        "reviewer_accepted": false
      },
      "terminology": null
    },
    "label": {
      "value": null,
      "provenance": null,
      "terminology": null
    },
    "description": {
      "value": "This is an international, multicenter, randomized, double-blind, placebo-controlled, parallel-group, Phase 3 clinical trial with the primary objective of demonstrating the superiority of palbociclib in combination with fulvestrant (Faslodex ) over fulvestrant alone in in women with HR+, HER2-negative metastatic breast cancer,regardless of their menopausal status, whose disease has progressed after prior endocrine therapy.",
      "provenance": {
        "origin": "extracted",
        "source_section_id": "sec-3",
        "source_page": 45,
        "raw_phrase": "This is an international, multicenter, randomized, double-blind, placebo-controlled, parallel-group, Phase 3 clinical trial",
        "confidence": 0.95,
        "verified": true,
        "note": null,
        "reviewer_accepted": false
      },
      "terminology": null
    },
    "rationale": {
      "value": "The growing data about the activity of fulvestrant after antihormonal therapy failure, together with emerging efficacy data of palbociclib support their combined use in women with HR+, HER2-negative metastatic breast cancer whose disease has progressed after prior endocrine therapy.",
      "provenance": {
        "origin": "extracted",
        "source_section_id": "fm-protocol-summary",
        "source_page": 9,
        "raw_phrase": "The growing data about the activity of fulvestrant after antihormonal therapy failure, together with emerging efficacy data of palbociclib support their combined use",
        "confidence": 0.85,
        "verified": true,
        "note": null,
        "reviewer_accepted": false
      },
      "terminology": null
    },
    "blinding_schema": {
      "value": "Double Blind Study",
      "provenance": {
        "origin": "extracted",
        "source_section_id": "sec-3",
        "source_page": 45,
        "raw_phrase": "double-blind",
        "confidence": 0.9,
        "verified": true,
        "note": null,
        "reviewer_accepted": false
      },
      "terminology": {
        "status": "exact",
        "codelist": "C66735",
        "codelist_name": "Trial Blinding Schema Response",
        "ct_version": "2026-03-27",
        "code": "C15228",
        "submission_value": "DOUBLE BLIND",
        "preferred_term": "Double Blind Study",
        "matched_on": "preferredTerm",
        "candidates": []
      }
    },
    "intent_types": {
      "value": "Treatment Study",
      "provenance": {
        "origin": "extracted",
        "source_section_id": "sec-3",
        "source_page": null,
        "raw_phrase": "the superiority of palbociclib in combination with fulvestrant (Faslodex ) over fulvestrant alone ... whose disease has progressed after prior endocrine therapy",
        "confidence": 0.3,
        "verified": false,
        "note": "quote not found in the protocol text; the value may not be supported",
        "reviewer_accepted": false
      },
      "terminology": {
        "status": "exact",
        "codelist": "C66736",
        "codelist_name": "Trial Intent Type Response",
        "ct_version": "2026-03-27",
        "code": "C49656",
        "submission_value": "TREATMENT",
        "preferred_term": "Treatment Study",
        "matched_on": "preferredTerm",
        "candidates": []
      }
    },
    "sub_types": {
      "value": "Efficacy Study, Safety Study, Pharmacokinetic Study",
      "provenance": {
        "origin": "extracted",
        "source_section_id": "fm-protocol-summary",
        "source_page": 11,
        "raw_phrase": "To demonstrate the superiority of palbociclib in combination with fulvestrant (with or without goserelin) over fulvestrant alone (with or without goserelin) in prolonging investigator-assessed PFS | To compare safety and tolerability between the treatment arms. | To evaluate trough concentrations of palbociclib when given in combination with fulvestrant or fulvestrant plus goserelin, compared to historical palbociclib data.",
        "confidence": 0.8,
        "verified": true,
        "note": "one quote per listed term",
        "reviewer_accepted": false
      },
      "terminology": {
        "status": "exact",
        "codelist": "C66739",
        "codelist_name": "Trial Type Response",
        "ct_version": "2026-03-27",
        "code": "C49666, C49667, C49663",
        "submission_value": "EFFICACY, SAFETY, PHARMACOKINETIC",
        "preferred_term": "Efficacy Study, Safety Study, Pharmacokinetic Study",
        "matched_on": "multiple",
        "candidates": []
      }
    },
    "intervention_model": {
      "value": "Parallel Study",
      "provenance": {
        "origin": "extracted",
        "source_section_id": "sec-3",
        "source_page": 45,
        "raw_phrase": "parallel-group",
        "confidence": 0.9,
        "verified": true,
        "note": null,
        "reviewer_accepted": false
      },
      "terminology": {
        "status": "exact",
        "codelist": "C99076",
        "codelist_name": "Intervention Model Response",
        "ct_version": "2026-03-27",
        "code": "C82639",
        "submission_value": "PARALLEL",
        "preferred_term": "Parallel Study",
        "matched_on": "preferredTerm",
        "candidates": []
      }
    },
    "characteristics": {
      "value": "Multicenter Study, Randomized Controlled Clinical Trial, Multiple Countries, Stratification, Adaptive Design",
      "provenance": {
        "origin": "extracted",
        "source_section_id": "sec-3",
        "source_page": 45,
        "raw_phrase": "multicenter | randomized, double-blind, placebo-controlled | international | Randomization will be stratified by documented sensitivity to prior hormonal therapy (yes vs. no), by menopausal status at study entry (pre-/peri- vs. post menopausal), and by the presence of visceral metastases (yes vs. no). | One interim analysis is planned to re-estimate the sample size, to assess patient safety and efficacy at 60% of the PFS events.",
        "confidence": 0.7,
        "verified": true,
        "note": "one quote per listed term",
        "reviewer_accepted": false
      },
      "terminology": {
        "status": "exact",
        "codelist": "C207416",
        "codelist_name": "Study Design Characteristics Value Set Terminology",
        "ct_version": "2026-03-27",
        "code": "C217005, C46079, C217007, C25689, C98704",
        "submission_value": "Multicentre, Randomized, Multiple Countries, Stratification, Adaptive",
        "preferred_term": "Multicenter Study, Randomized Controlled Clinical Trial, Multiple Countries, Stratification, Adaptive Design",
        "matched_on": "multiple",
        "candidates": []
      }
    },
    "study_type": {
      "value": "Interventional Study",
      "provenance": {
        "origin": "extracted",
        "source_section_id": "sec-3",
        "source_page": 45,
        "raw_phrase": "randomized, double-blind, placebo-controlled, parallel-group, Phase 3 clinical trial",
        "confidence": 0.9,
        "verified": true,
        "note": null,
        "reviewer_accepted": false
      },
      "terminology": {
        "status": "exact",
        "codelist": "C99077",
        "codelist_name": "Study Type Response",
        "ct_version": "2026-03-27",
        "code": "C98388",
        "submission_value": "INTERVENTIONAL",
        "preferred_term": "Interventional Study",
        "matched_on": "preferredTerm",
        "candidates": []
      }
    },
    "study_phase": {
      "value": "Phase III Trial",
      "provenance": {
        "origin": "extracted",
        "source_section_id": "title-page",
        "source_page": 1,
        "raw_phrase": "Phase: 3",
        "confidence": 0.95,
        "verified": true,
        "note": null,
        "reviewer_accepted": false
      },
      "terminology": {
        "status": "exact",
        "codelist": "C66737",
        "codelist_name": "Trial Phase Response",
        "ct_version": "2026-03-27",
        "code": "C15602",
        "submission_value": "PHASE III TRIAL",
        "preferred_term": "Phase III Trial",
        "matched_on": "submissionValue",
        "candidates": []
      }
    }
  },
  "model_output": {
    "description": {
      "value": "This is an international, multicenter, randomized, double-blind, placebo-controlled, parallel-group, Phase 3 clinical trial with the primary objective of demonstrating the superiority of palbociclib in combination with fulvestrant (Faslodex ) over fulvestrant alone in in women with HR+, HER2-negative metastatic breast cancer,regardless of their menopausal status, whose disease has progressed after prior endocrine therapy.",
      "quote": "This is an international, multicenter, randomized, double-blind, placebo-controlled, parallel-group, Phase 3 clinical trial",
      "section_id": "sec-3",
      "confidence": 0.95
    },
    "rationale": {
      "value": "The growing data about the activity of fulvestrant after antihormonal therapy failure, together with emerging efficacy data of palbociclib support their combined use in women with HR+, HER2-negative metastatic breast cancer whose disease has progressed after prior endocrine therapy.",
      "quote": "The growing data about the activity of fulvestrant after antihormonal therapy failure, together with emerging efficacy data of palbociclib support their combined use",
      "section_id": "fm-protocol-summary",
      "confidence": 0.85
    },
    "study_type": {
      "value": "Interventional Study",
      "quote": "randomized, double-blind, placebo-controlled, parallel-group, Phase 3 clinical trial",
      "section_id": "sec-3",
      "confidence": 0.9
    },
    "study_phase": {
      "value": "Phase III Trial",
      "quote": "Phase: 3",
      "section_id": "title-page",
      "confidence": 0.95
    },
    "blinding_schema": {
      "value": "Double Blind Study",
      "quote": "double-blind",
      "section_id": "sec-3",
      "confidence": 0.9
    },
    "intervention_model": {
      "value": "Parallel Study",
      "quote": "parallel-group",
      "section_id": "sec-3",
      "confidence": 0.9
    },
    "intent_types": [
      {
        "value": "Treatment Study",
        "quote": "the superiority of palbociclib in combination with fulvestrant (Faslodex ) over fulvestrant alone ... whose disease has progressed after prior endocrine therapy",
        "section_id": "sec-3",
        "confidence": 0.8
      }
    ],
    "sub_types": [
      {
        "value": "Efficacy Study",
        "quote": "To demonstrate the superiority of palbociclib in combination with fulvestrant (with or without goserelin) over fulvestrant alone (with or without goserelin) in prolonging investigator-assessed PFS",
        "section_id": "fm-protocol-summary",
        "confidence": 0.85
      },
      {
        "value": "Safety Study",
        "quote": "To compare safety and tolerability between the treatment arms.",
        "section_id": "fm-protocol-summary",
        "confidence": 0.85
      },
      {
        "value": "Pharmacokinetic Study",
        "quote": "To evaluate trough concentrations of palbociclib when given in combination with fulvestrant or fulvestrant plus goserelin, compared to historical palbociclib data.",
        "section_id": "fm-protocol-summary",
        "confidence": 0.8
      }
    ],
    "characteristics": [
      {
        "value": "Multicenter Study",
        "quote": "multicenter",
        "section_id": "sec-3",
        "confidence": 0.9
      },
      {
        "value": "Randomized Controlled Clinical Trial",
        "quote": "randomized, double-blind, placebo-controlled",
        "section_id": "sec-3",
        "confidence": 0.85
      },
      {
        "value": "Multiple Countries",
        "quote": "international",
        "section_id": "sec-3",
        "confidence": 0.7
      },
      {
        "value": "Stratification",
        "quote": "Randomization will be stratified by documented sensitivity to prior hormonal therapy (yes vs. no), by menopausal status at study entry (pre-/peri- vs. post menopausal), and by the presence of visceral metastases (yes vs. no).",
        "section_id": "sec-3",
        "confidence": 0.85
      },
      {
        "value": "Adaptive Design",
        "quote": "One interim analysis is planned to re-estimate the sample size, to assess patient safety and efficacy at 60% of the PFS events.",
        "section_id": "sec-3",
        "confidence": 0.7
      }
    ]
  }
}
