{
  "run": {
    "sheet": "schedule",
    "status": "done",
    "started_at": "2026-09-13T21:28:04.710347Z",
    "finished_at": "2026-09-13T21:29:48.613363Z",
    "input_hash": "c49080f49e675e765dcf1d16e3c98f919139fbcb2bf1b02166d3135dd2f50bf5",
    "postprocess_version": "1+verify4",
    "reprocessed": false,
    "section_ids": [
      "app-protocol-attachment-lzzt-1-schedule-of-e"
    ],
    "usage": {
      "model": "claude-sonnet-5",
      "input_tokens": 16154,
      "output_tokens": 13136,
      "cache_creation_input_tokens": 0,
      "cache_read_input_tokens": 0,
      "latency_seconds": 103.86,
      "cost_usd": 0.163668,
      "stop_reason": "end_turn",
      "request_id": null
    },
    "error": null,
    "warnings": [
      "Visit 2 (Week -.3): no planned time stated, so no timing",
      "Early Termination (ET): no planned time stated, so no timing",
      "Retrieval (RT): no planned time stated, so no timing"
    ]
  },
  "records": {
    "epochs": [
      {
        "row_id": null,
        "name": {
          "value": "Screening",
          "provenance": {
            "origin": "derived",
            "source_section_id": null,
            "source_page": null,
            "raw_phrase": null,
            "confidence": 1.0,
            "verified": true,
            "note": "generated from the epoch name",
            "reviewer_accepted": false
          },
          "terminology": null
        },
        "label": {
          "value": "Screening",
          "provenance": {
            "origin": "extracted",
            "source_section_id": "app-protocol-attachment-lzzt-1-schedule-of-e",
            "source_page": 53,
            "raw_phrase": "Informed consent",
            "confidence": 0.6,
            "verified": true,
            "note": null,
            "reviewer_accepted": false
          },
          "terminology": null
        },
        "description": {
          "value": null,
          "provenance": null,
          "terminology": null
        },
        "type": {
          "value": "Screening Epoch",
          "provenance": {
            "origin": "extracted",
            "source_section_id": "app-protocol-attachment-lzzt-1-schedule-of-e",
            "source_page": 53,
            "raw_phrase": "Informed consent",
            "confidence": 0.6,
            "verified": true,
            "note": null,
            "reviewer_accepted": false
          },
          "terminology": {
            "status": "exact",
            "codelist": "C99079",
            "codelist_name": "Epoch",
            "ct_version": "2026-03-27",
            "code": "C202487",
            "submission_value": "SCREENING",
            "preferred_term": "Screening Epoch",
            "matched_on": "preferredTerm",
            "candidates": []
          }
        }
      },
      {
        "row_id": null,
        "name": {
          "value": "Treatment",
          "provenance": {
            "origin": "derived",
            "source_section_id": null,
            "source_page": null,
            "raw_phrase": null,
            "confidence": 1.0,
            "verified": true,
            "note": "generated from the epoch name",
            "reviewer_accepted": false
          },
          "terminology": null
        },
        "label": {
          "value": "Treatment",
          "provenance": {
            "origin": "extracted",
            "source_section_id": "app-protocol-attachment-lzzt-1-schedule-of-e",
            "source_page": 53,
            "raw_phrase": "Patient randomized",
            "confidence": 0.7,
            "verified": true,
            "note": null,
            "reviewer_accepted": false
          },
          "terminology": null
        },
        "description": {
          "value": null,
          "provenance": null,
          "terminology": null
        },
        "type": {
          "value": "Treatment Epoch",
          "provenance": {
            "origin": "extracted",
            "source_section_id": "app-protocol-attachment-lzzt-1-schedule-of-e",
            "source_page": 53,
            "raw_phrase": "Patient randomized",
            "confidence": 0.7,
            "verified": true,
            "note": null,
            "reviewer_accepted": false
          },
          "terminology": {
            "status": "exact",
            "codelist": "C99079",
            "codelist_name": "Epoch",
            "ct_version": "2026-03-27",
            "code": "C101526",
            "submission_value": "TREATMENT",
            "preferred_term": "Treatment Epoch",
            "matched_on": "preferredTerm",
            "candidates": []
          }
        }
      },
      {
        "row_id": null,
        "name": {
          "value": "Follow-up",
          "provenance": {
            "origin": "derived",
            "source_section_id": null,
            "source_page": null,
            "raw_phrase": null,
            "confidence": 1.0,
            "verified": true,
            "note": "generated from the epoch name",
            "reviewer_accepted": false
          },
          "terminology": null
        },
        "label": {
          "value": "Follow-up",
          "provenance": {
            "origin": "extracted",
            "source_section_id": "app-protocol-attachment-lzzt-1-schedule-of-e",
            "source_page": 54,
            "raw_phrase": "RT",
            "confidence": 0.5,
            "verified": true,
            "note": null,
            "reviewer_accepted": false
          },
          "terminology": null
        },
        "description": {
          "value": null,
          "provenance": null,
          "terminology": null
        },
        "type": {
          "value": "Follow-Up Epoch",
          "provenance": {
            "origin": "extracted",
            "source_section_id": "app-protocol-attachment-lzzt-1-schedule-of-e",
            "source_page": 54,
            "raw_phrase": "RT",
            "confidence": 0.5,
            "verified": true,
            "note": null,
            "reviewer_accepted": false
          },
          "terminology": {
            "status": "exact",
            "codelist": "C99079",
            "codelist_name": "Epoch",
            "ct_version": "2026-03-27",
            "code": "C202578",
            "submission_value": "FOLLOW-UP",
            "preferred_term": "Follow-Up Epoch",
            "matched_on": "preferredTerm",
            "candidates": []
          }
        }
      }
    ],
    "encounters": [
      {
        "row_id": null,
        "name": {
          "value": "Visit 1 (Week -2)",
          "provenance": {
            "origin": "derived",
            "source_section_id": null,
            "source_page": null,
            "raw_phrase": null,
            "confidence": 1.0,
            "verified": true,
            "note": "generated from the visit heading",
            "reviewer_accepted": false
          },
          "terminology": null
        },
        "label": {
          "value": "Visit 1 (Week -2)",
          "provenance": {
            "origin": "extracted",
            "source_section_id": "app-protocol-attachment-lzzt-1-schedule-of-e",
            "source_page": 53,
            "raw_phrase": "-2",
            "confidence": 0.8,
            "verified": true,
            "note": null,
            "reviewer_accepted": false
          },
          "terminology": null
        },
        "description": {
          "value": null,
          "provenance": null,
          "terminology": null
        },
        "type": {
          "value": "Visit",
          "provenance": {
            "origin": "derived",
            "source_section_id": null,
            "source_page": null,
            "raw_phrase": null,
            "confidence": 1.0,
            "verified": true,
            "note": "every scheduled visit",
            "reviewer_accepted": false
          },
          "terminology": {
            "status": "exact",
            "codelist": "C188728",
            "codelist_name": "Encounter Type Value Set Terminology",
            "ct_version": "2026-03-27",
            "code": "C25716",
            "submission_value": "Visit",
            "preferred_term": "Visit",
            "matched_on": "submissionValue",
            "candidates": []
          }
        },
        "environmental_settings": {
          "value": null,
          "provenance": null,
          "terminology": null
        },
        "contact_modes": {
          "value": null,
          "provenance": null,
          "terminology": null
        },
        "transition_start_rule": {
          "value": null,
          "provenance": null,
          "terminology": null
        },
        "transition_end_rule": {
          "value": null,
          "provenance": null,
          "terminology": null
        },
        "window": {
          "value": "Visit 1 (Week -2) timing",
          "provenance": {
            "origin": "derived",
            "source_section_id": null,
            "source_page": null,
            "raw_phrase": null,
            "confidence": 1.0,
            "verified": true,
            "note": "the timing that schedules this visit",
            "reviewer_accepted": false
          },
          "terminology": null
        }
      },
      {
        "row_id": null,
        "name": {
          "value": "Visit 2 (Week -.3)",
          "provenance": {
            "origin": "derived",
            "source_section_id": null,
            "source_page": null,
            "raw_phrase": null,
            "confidence": 1.0,
            "verified": true,
            "note": "generated from the visit heading",
            "reviewer_accepted": false
          },
          "terminology": null
        },
        "label": {
          "value": "Visit 2 (Week -.3)",
          "provenance": {
            "origin": "extracted",
            "source_section_id": "app-protocol-attachment-lzzt-1-schedule-of-e",
            "source_page": 53,
            "raw_phrase": "-.3",
            "confidence": 0.7,
            "verified": true,
            "note": null,
            "reviewer_accepted": false
          },
          "terminology": null
        },
        "description": {
          "value": null,
          "provenance": null,
          "terminology": null
        },
        "type": {
          "value": "Visit",
          "provenance": {
            "origin": "derived",
            "source_section_id": null,
            "source_page": null,
            "raw_phrase": null,
            "confidence": 1.0,
            "verified": true,
            "note": "every scheduled visit",
            "reviewer_accepted": false
          },
          "terminology": {
            "status": "exact",
            "codelist": "C188728",
            "codelist_name": "Encounter Type Value Set Terminology",
            "ct_version": "2026-03-27",
            "code": "C25716",
            "submission_value": "Visit",
            "preferred_term": "Visit",
            "matched_on": "submissionValue",
            "candidates": []
          }
        },
        "environmental_settings": {
          "value": null,
          "provenance": null,
          "terminology": null
        },
        "contact_modes": {
          "value": null,
          "provenance": null,
          "terminology": null
        },
        "transition_start_rule": {
          "value": null,
          "provenance": null,
          "terminology": null
        },
        "transition_end_rule": {
          "value": null,
          "provenance": null,
          "terminology": null
        },
        "window": {
          "value": null,
          "provenance": null,
          "terminology": null
        }
      },
      {
        "row_id": null,
        "name": {
          "value": "Visit 3 (Week 0)",
          "provenance": {
            "origin": "derived",
            "source_section_id": null,
            "source_page": null,
            "raw_phrase": null,
            "confidence": 1.0,
            "verified": true,
            "note": "generated from the visit heading",
            "reviewer_accepted": false
          },
          "terminology": null
        },
        "label": {
          "value": "Visit 3 (Week 0)",
          "provenance": {
            "origin": "extracted",
            "source_section_id": "app-protocol-attachment-lzzt-1-schedule-of-e",
            "source_page": 53,
            "raw_phrase": "0",
            "confidence": 0.9,
            "verified": true,
            "note": null,
            "reviewer_accepted": false
          },
          "terminology": null
        },
        "description": {
          "value": null,
          "provenance": null,
          "terminology": null
        },
        "type": {
          "value": "Visit",
          "provenance": {
            "origin": "derived",
            "source_section_id": null,
            "source_page": null,
            "raw_phrase": null,
            "confidence": 1.0,
            "verified": true,
            "note": "every scheduled visit",
            "reviewer_accepted": false
          },
          "terminology": {
            "status": "exact",
            "codelist": "C188728",
            "codelist_name": "Encounter Type Value Set Terminology",
            "ct_version": "2026-03-27",
            "code": "C25716",
            "submission_value": "Visit",
            "preferred_term": "Visit",
            "matched_on": "submissionValue",
            "candidates": []
          }
        },
        "environmental_settings": {
          "value": null,
          "provenance": null,
          "terminology": null
        },
        "contact_modes": {
          "value": null,
          "provenance": null,
          "terminology": null
        },
        "transition_start_rule": {
          "value": null,
          "provenance": null,
          "terminology": null
        },
        "transition_end_rule": {
          "value": null,
          "provenance": null,
          "terminology": null
        },
        "window": {
          "value": "Visit 3 (Week 0) timing",
          "provenance": {
            "origin": "derived",
            "source_section_id": null,
            "source_page": null,
            "raw_phrase": null,
            "confidence": 1.0,
            "verified": true,
            "note": "the timing that schedules this visit",
            "reviewer_accepted": false
          },
          "terminology": null
        }
      },
      {
        "row_id": null,
        "name": {
          "value": "Visit 4 (Week 2)",
          "provenance": {
            "origin": "derived",
            "source_section_id": null,
            "source_page": null,
            "raw_phrase": null,
            "confidence": 1.0,
            "verified": true,
            "note": "generated from the visit heading",
            "reviewer_accepted": false
          },
          "terminology": null
        },
        "label": {
          "value": "Visit 4 (Week 2)",
          "provenance": {
            "origin": "extracted",
            "source_section_id": "app-protocol-attachment-lzzt-1-schedule-of-e",
            "source_page": 53,
            "raw_phrase": "2",
            "confidence": 0.85,
            "verified": true,
            "note": null,
            "reviewer_accepted": false
          },
          "terminology": null
        },
        "description": {
          "value": null,
          "provenance": null,
          "terminology": null
        },
        "type": {
          "value": "Visit",
          "provenance": {
            "origin": "derived",
            "source_section_id": null,
            "source_page": null,
            "raw_phrase": null,
            "confidence": 1.0,
            "verified": true,
            "note": "every scheduled visit",
            "reviewer_accepted": false
          },
          "terminology": {
            "status": "exact",
            "codelist": "C188728",
            "codelist_name": "Encounter Type Value Set Terminology",
            "ct_version": "2026-03-27",
            "code": "C25716",
            "submission_value": "Visit",
            "preferred_term": "Visit",
            "matched_on": "submissionValue",
            "candidates": []
          }
        },
        "environmental_settings": {
          "value": null,
          "provenance": null,
          "terminology": null
        },
        "contact_modes": {
          "value": null,
          "provenance": null,
          "terminology": null
        },
        "transition_start_rule": {
          "value": null,
          "provenance": null,
          "terminology": null
        },
        "transition_end_rule": {
          "value": null,
          "provenance": null,
          "terminology": null
        },
        "window": {
          "value": "Visit 4 (Week 2) timing",
          "provenance": {
            "origin": "derived",
            "source_section_id": null,
            "source_page": null,
            "raw_phrase": null,
            "confidence": 1.0,
            "verified": true,
            "note": "the timing that schedules this visit",
            "reviewer_accepted": false
          },
          "terminology": null
        }
      },
      {
        "row_id": null,
        "name": {
          "value": "Visit 5 (Week 4)",
          "provenance": {
            "origin": "derived",
            "source_section_id": null,
            "source_page": null,
            "raw_phrase": null,
            "confidence": 1.0,
            "verified": true,
            "note": "generated from the visit heading",
            "reviewer_accepted": false
          },
          "terminology": null
        },
        "label": {
          "value": "Visit 5 (Week 4)",
          "provenance": {
            "origin": "extracted",
            "source_section_id": "app-protocol-attachment-lzzt-1-schedule-of-e",
            "source_page": 53,
            "raw_phrase": "4",
            "confidence": 0.85,
            "verified": true,
            "note": null,
            "reviewer_accepted": false
          },
          "terminology": null
        },
        "description": {
          "value": null,
          "provenance": null,
          "terminology": null
        },
        "type": {
          "value": "Visit",
          "provenance": {
            "origin": "derived",
            "source_section_id": null,
            "source_page": null,
            "raw_phrase": null,
            "confidence": 1.0,
            "verified": true,
            "note": "every scheduled visit",
            "reviewer_accepted": false
          },
          "terminology": {
            "status": "exact",
            "codelist": "C188728",
            "codelist_name": "Encounter Type Value Set Terminology",
            "ct_version": "2026-03-27",
            "code": "C25716",
            "submission_value": "Visit",
            "preferred_term": "Visit",
            "matched_on": "submissionValue",
            "candidates": []
          }
        },
        "environmental_settings": {
          "value": null,
          "provenance": null,
          "terminology": null
        },
        "contact_modes": {
          "value": null,
          "provenance": null,
          "terminology": null
        },
        "transition_start_rule": {
          "value": null,
          "provenance": null,
          "terminology": null
        },
        "transition_end_rule": {
          "value": null,
          "provenance": null,
          "terminology": null
        },
        "window": {
          "value": "Visit 5 (Week 4) timing",
          "provenance": {
            "origin": "derived",
            "source_section_id": null,
            "source_page": null,
            "raw_phrase": null,
            "confidence": 1.0,
            "verified": true,
            "note": "the timing that schedules this visit",
            "reviewer_accepted": false
          },
          "terminology": null
        }
      },
      {
        "row_id": null,
        "name": {
          "value": "Visit 7 (Week 6)",
          "provenance": {
            "origin": "derived",
            "source_section_id": null,
            "source_page": null,
            "raw_phrase": null,
            "confidence": 1.0,
            "verified": true,
            "note": "generated from the visit heading",
            "reviewer_accepted": false
          },
          "terminology": null
        },
        "label": {
          "value": "Visit 7 (Week 6)",
          "provenance": {
            "origin": "extracted",
            "source_section_id": "app-protocol-attachment-lzzt-1-schedule-of-e",
            "source_page": 53,
            "raw_phrase": "6",
            "confidence": 0.85,
            "verified": true,
            "note": null,
            "reviewer_accepted": false
          },
          "terminology": null
        },
        "description": {
          "value": null,
          "provenance": null,
          "terminology": null
        },
        "type": {
          "value": "Visit",
          "provenance": {
            "origin": "derived",
            "source_section_id": null,
            "source_page": null,
            "raw_phrase": null,
            "confidence": 1.0,
            "verified": true,
            "note": "every scheduled visit",
            "reviewer_accepted": false
          },
          "terminology": {
            "status": "exact",
            "codelist": "C188728",
            "codelist_name": "Encounter Type Value Set Terminology",
            "ct_version": "2026-03-27",
            "code": "C25716",
            "submission_value": "Visit",
            "preferred_term": "Visit",
            "matched_on": "submissionValue",
            "candidates": []
          }
        },
        "environmental_settings": {
          "value": null,
          "provenance": null,
          "terminology": null
        },
        "contact_modes": {
          "value": null,
          "provenance": null,
          "terminology": null
        },
        "transition_start_rule": {
          "value": null,
          "provenance": null,
          "terminology": null
        },
        "transition_end_rule": {
          "value": null,
          "provenance": null,
          "terminology": null
        },
        "window": {
          "value": "Visit 7 (Week 6) timing",
          "provenance": {
            "origin": "derived",
            "source_section_id": null,
            "source_page": null,
            "raw_phrase": null,
            "confidence": 1.0,
            "verified": true,
            "note": "the timing that schedules this visit",
            "reviewer_accepted": false
          },
          "terminology": null
        }
      },
      {
        "row_id": null,
        "name": {
          "value": "Visit 8 (Week 8)",
          "provenance": {
            "origin": "derived",
            "source_section_id": null,
            "source_page": null,
            "raw_phrase": null,
            "confidence": 1.0,
            "verified": true,
            "note": "generated from the visit heading",
            "reviewer_accepted": false
          },
          "terminology": null
        },
        "label": {
          "value": "Visit 8 (Week 8)",
          "provenance": {
            "origin": "extracted",
            "source_section_id": "app-protocol-attachment-lzzt-1-schedule-of-e",
            "source_page": 53,
            "raw_phrase": "8",
            "confidence": 0.85,
            "verified": true,
            "note": null,
            "reviewer_accepted": false
          },
          "terminology": null
        },
        "description": {
          "value": null,
          "provenance": null,
          "terminology": null
        },
        "type": {
          "value": "Visit",
          "provenance": {
            "origin": "derived",
            "source_section_id": null,
            "source_page": null,
            "raw_phrase": null,
            "confidence": 1.0,
            "verified": true,
            "note": "every scheduled visit",
            "reviewer_accepted": false
          },
          "terminology": {
            "status": "exact",
            "codelist": "C188728",
            "codelist_name": "Encounter Type Value Set Terminology",
            "ct_version": "2026-03-27",
            "code": "C25716",
            "submission_value": "Visit",
            "preferred_term": "Visit",
            "matched_on": "submissionValue",
            "candidates": []
          }
        },
        "environmental_settings": {
          "value": null,
          "provenance": null,
          "terminology": null
        },
        "contact_modes": {
          "value": null,
          "provenance": null,
          "terminology": null
        },
        "transition_start_rule": {
          "value": null,
          "provenance": null,
          "terminology": null
        },
        "transition_end_rule": {
          "value": null,
          "provenance": null,
          "terminology": null
        },
        "window": {
          "value": "Visit 8 (Week 8) timing",
          "provenance": {
            "origin": "derived",
            "source_section_id": null,
            "source_page": null,
            "raw_phrase": null,
            "confidence": 1.0,
            "verified": true,
            "note": "the timing that schedules this visit",
            "reviewer_accepted": false
          },
          "terminology": null
        }
      },
      {
        "row_id": null,
        "name": {
          "value": "Visit 9 (Week 12)",
          "provenance": {
            "origin": "derived",
            "source_section_id": null,
            "source_page": null,
            "raw_phrase": null,
            "confidence": 1.0,
            "verified": true,
            "note": "generated from the visit heading",
            "reviewer_accepted": false
          },
          "terminology": null
        },
        "label": {
          "value": "Visit 9 (Week 12)",
          "provenance": {
            "origin": "extracted",
            "source_section_id": "app-protocol-attachment-lzzt-1-schedule-of-e",
            "source_page": 54,
            "raw_phrase": "12",
            "confidence": 0.85,
            "verified": true,
            "note": null,
            "reviewer_accepted": false
          },
          "terminology": null
        },
        "description": {
          "value": null,
          "provenance": null,
          "terminology": null
        },
        "type": {
          "value": "Visit",
          "provenance": {
            "origin": "derived",
            "source_section_id": null,
            "source_page": null,
            "raw_phrase": null,
            "confidence": 1.0,
            "verified": true,
            "note": "every scheduled visit",
            "reviewer_accepted": false
          },
          "terminology": {
            "status": "exact",
            "codelist": "C188728",
            "codelist_name": "Encounter Type Value Set Terminology",
            "ct_version": "2026-03-27",
            "code": "C25716",
            "submission_value": "Visit",
            "preferred_term": "Visit",
            "matched_on": "submissionValue",
            "candidates": []
          }
        },
        "environmental_settings": {
          "value": null,
          "provenance": null,
          "terminology": null
        },
        "contact_modes": {
          "value": null,
          "provenance": null,
          "terminology": null
        },
        "transition_start_rule": {
          "value": null,
          "provenance": null,
          "terminology": null
        },
        "transition_end_rule": {
          "value": null,
          "provenance": null,
          "terminology": null
        },
        "window": {
          "value": "Visit 9 (Week 12) timing",
          "provenance": {
            "origin": "derived",
            "source_section_id": null,
            "source_page": null,
            "raw_phrase": null,
            "confidence": 1.0,
            "verified": true,
            "note": "the timing that schedules this visit",
            "reviewer_accepted": false
          },
          "terminology": null
        }
      },
      {
        "row_id": null,
        "name": {
          "value": "Visit 10 (Week 16)",
          "provenance": {
            "origin": "derived",
            "source_section_id": null,
            "source_page": null,
            "raw_phrase": null,
            "confidence": 1.0,
            "verified": true,
            "note": "generated from the visit heading",
            "reviewer_accepted": false
          },
          "terminology": null
        },
        "label": {
          "value": "Visit 10 (Week 16)",
          "provenance": {
            "origin": "extracted",
            "source_section_id": "app-protocol-attachment-lzzt-1-schedule-of-e",
            "source_page": 54,
            "raw_phrase": "16",
            "confidence": 0.85,
            "verified": true,
            "note": null,
            "reviewer_accepted": false
          },
          "terminology": null
        },
        "description": {
          "value": null,
          "provenance": null,
          "terminology": null
        },
        "type": {
          "value": "Visit",
          "provenance": {
            "origin": "derived",
            "source_section_id": null,
            "source_page": null,
            "raw_phrase": null,
            "confidence": 1.0,
            "verified": true,
            "note": "every scheduled visit",
            "reviewer_accepted": false
          },
          "terminology": {
            "status": "exact",
            "codelist": "C188728",
            "codelist_name": "Encounter Type Value Set Terminology",
            "ct_version": "2026-03-27",
            "code": "C25716",
            "submission_value": "Visit",
            "preferred_term": "Visit",
            "matched_on": "submissionValue",
            "candidates": []
          }
        },
        "environmental_settings": {
          "value": null,
          "provenance": null,
          "terminology": null
        },
        "contact_modes": {
          "value": null,
          "provenance": null,
          "terminology": null
        },
        "transition_start_rule": {
          "value": null,
          "provenance": null,
          "terminology": null
        },
        "transition_end_rule": {
          "value": null,
          "provenance": null,
          "terminology": null
        },
        "window": {
          "value": "Visit 10 (Week 16) timing",
          "provenance": {
            "origin": "derived",
            "source_section_id": null,
            "source_page": null,
            "raw_phrase": null,
            "confidence": 1.0,
            "verified": true,
            "note": "the timing that schedules this visit",
            "reviewer_accepted": false
          },
          "terminology": null
        }
      },
      {
        "row_id": null,
        "name": {
          "value": "Visit 11 (Week 20)",
          "provenance": {
            "origin": "derived",
            "source_section_id": null,
            "source_page": null,
            "raw_phrase": null,
            "confidence": 1.0,
            "verified": true,
            "note": "generated from the visit heading",
            "reviewer_accepted": false
          },
          "terminology": null
        },
        "label": {
          "value": "Visit 11 (Week 20)",
          "provenance": {
            "origin": "extracted",
            "source_section_id": "app-protocol-attachment-lzzt-1-schedule-of-e",
            "source_page": 54,
            "raw_phrase": "20",
            "confidence": 0.85,
            "verified": true,
            "note": null,
            "reviewer_accepted": false
          },
          "terminology": null
        },
        "description": {
          "value": null,
          "provenance": null,
          "terminology": null
        },
        "type": {
          "value": "Visit",
          "provenance": {
            "origin": "derived",
            "source_section_id": null,
            "source_page": null,
            "raw_phrase": null,
            "confidence": 1.0,
            "verified": true,
            "note": "every scheduled visit",
            "reviewer_accepted": false
          },
          "terminology": {
            "status": "exact",
            "codelist": "C188728",
            "codelist_name": "Encounter Type Value Set Terminology",
            "ct_version": "2026-03-27",
            "code": "C25716",
            "submission_value": "Visit",
            "preferred_term": "Visit",
            "matched_on": "submissionValue",
            "candidates": []
          }
        },
        "environmental_settings": {
          "value": null,
          "provenance": null,
          "terminology": null
        },
        "contact_modes": {
          "value": null,
          "provenance": null,
          "terminology": null
        },
        "transition_start_rule": {
          "value": null,
          "provenance": null,
          "terminology": null
        },
        "transition_end_rule": {
          "value": null,
          "provenance": null,
          "terminology": null
        },
        "window": {
          "value": "Visit 11 (Week 20) timing",
          "provenance": {
            "origin": "derived",
            "source_section_id": null,
            "source_page": null,
            "raw_phrase": null,
            "confidence": 1.0,
            "verified": true,
            "note": "the timing that schedules this visit",
            "reviewer_accepted": false
          },
          "terminology": null
        }
      },
      {
        "row_id": null,
        "name": {
          "value": "Visit 12 (Week 24)",
          "provenance": {
            "origin": "derived",
            "source_section_id": null,
            "source_page": null,
            "raw_phrase": null,
            "confidence": 1.0,
            "verified": true,
            "note": "generated from the visit heading",
            "reviewer_accepted": false
          },
          "terminology": null
        },
        "label": {
          "value": "Visit 12 (Week 24)",
          "provenance": {
            "origin": "extracted",
            "source_section_id": "app-protocol-attachment-lzzt-1-schedule-of-e",
            "source_page": 54,
            "raw_phrase": "24",
            "confidence": 0.85,
            "verified": true,
            "note": null,
            "reviewer_accepted": false
          },
          "terminology": null
        },
        "description": {
          "value": null,
          "provenance": null,
          "terminology": null
        },
        "type": {
          "value": "Visit",
          "provenance": {
            "origin": "derived",
            "source_section_id": null,
            "source_page": null,
            "raw_phrase": null,
            "confidence": 1.0,
            "verified": true,
            "note": "every scheduled visit",
            "reviewer_accepted": false
          },
          "terminology": {
            "status": "exact",
            "codelist": "C188728",
            "codelist_name": "Encounter Type Value Set Terminology",
            "ct_version": "2026-03-27",
            "code": "C25716",
            "submission_value": "Visit",
            "preferred_term": "Visit",
            "matched_on": "submissionValue",
            "candidates": []
          }
        },
        "environmental_settings": {
          "value": null,
          "provenance": null,
          "terminology": null
        },
        "contact_modes": {
          "value": null,
          "provenance": null,
          "terminology": null
        },
        "transition_start_rule": {
          "value": null,
          "provenance": null,
          "terminology": null
        },
        "transition_end_rule": {
          "value": null,
          "provenance": null,
          "terminology": null
        },
        "window": {
          "value": "Visit 12 (Week 24) timing",
          "provenance": {
            "origin": "derived",
            "source_section_id": null,
            "source_page": null,
            "raw_phrase": null,
            "confidence": 1.0,
            "verified": true,
            "note": "the timing that schedules this visit",
            "reviewer_accepted": false
          },
          "terminology": null
        }
      },
      {
        "row_id": null,
        "name": {
          "value": "Visit 13 (Week 26)",
          "provenance": {
            "origin": "derived",
            "source_section_id": null,
            "source_page": null,
            "raw_phrase": null,
            "confidence": 1.0,
            "verified": true,
            "note": "generated from the visit heading",
            "reviewer_accepted": false
          },
          "terminology": null
        },
        "label": {
          "value": "Visit 13 (Week 26)",
          "provenance": {
            "origin": "extracted",
            "source_section_id": "app-protocol-attachment-lzzt-1-schedule-of-e",
            "source_page": 54,
            "raw_phrase": "26",
            "confidence": 0.85,
            "verified": true,
            "note": null,
            "reviewer_accepted": false
          },
          "terminology": null
        },
        "description": {
          "value": null,
          "provenance": null,
          "terminology": null
        },
        "type": {
          "value": "Visit",
          "provenance": {
            "origin": "derived",
            "source_section_id": null,
            "source_page": null,
            "raw_phrase": null,
            "confidence": 1.0,
            "verified": true,
            "note": "every scheduled visit",
            "reviewer_accepted": false
          },
          "terminology": {
            "status": "exact",
            "codelist": "C188728",
            "codelist_name": "Encounter Type Value Set Terminology",
            "ct_version": "2026-03-27",
            "code": "C25716",
            "submission_value": "Visit",
            "preferred_term": "Visit",
            "matched_on": "submissionValue",
            "candidates": []
          }
        },
        "environmental_settings": {
          "value": null,
          "provenance": null,
          "terminology": null
        },
        "contact_modes": {
          "value": null,
          "provenance": null,
          "terminology": null
        },
        "transition_start_rule": {
          "value": null,
          "provenance": null,
          "terminology": null
        },
        "transition_end_rule": {
          "value": null,
          "provenance": null,
          "terminology": null
        },
        "window": {
          "value": "Visit 13 (Week 26) timing",
          "provenance": {
            "origin": "derived",
            "source_section_id": null,
            "source_page": null,
            "raw_phrase": null,
            "confidence": 1.0,
            "verified": true,
            "note": "the timing that schedules this visit",
            "reviewer_accepted": false
          },
          "terminology": null
        }
      },
      {
        "row_id": null,
        "name": {
          "value": "Early Termination (ET)",
          "provenance": {
            "origin": "derived",
            "source_section_id": null,
            "source_page": null,
            "raw_phrase": null,
            "confidence": 1.0,
            "verified": true,
            "note": "generated from the visit heading",
            "reviewer_accepted": false
          },
          "terminology": null
        },
        "label": {
          "value": "Early Termination (ET)",
          "provenance": {
            "origin": "extracted",
            "source_section_id": "app-protocol-attachment-lzzt-1-schedule-of-e",
            "source_page": 54,
            "raw_phrase": "ET",
            "confidence": 0.8,
            "verified": true,
            "note": null,
            "reviewer_accepted": false
          },
          "terminology": null
        },
        "description": {
          "value": null,
          "provenance": null,
          "terminology": null
        },
        "type": {
          "value": "Visit",
          "provenance": {
            "origin": "derived",
            "source_section_id": null,
            "source_page": null,
            "raw_phrase": null,
            "confidence": 1.0,
            "verified": true,
            "note": "every scheduled visit",
            "reviewer_accepted": false
          },
          "terminology": {
            "status": "exact",
            "codelist": "C188728",
            "codelist_name": "Encounter Type Value Set Terminology",
            "ct_version": "2026-03-27",
            "code": "C25716",
            "submission_value": "Visit",
            "preferred_term": "Visit",
            "matched_on": "submissionValue",
            "candidates": []
          }
        },
        "environmental_settings": {
          "value": null,
          "provenance": null,
          "terminology": null
        },
        "contact_modes": {
          "value": null,
          "provenance": null,
          "terminology": null
        },
        "transition_start_rule": {
          "value": null,
          "provenance": null,
          "terminology": null
        },
        "transition_end_rule": {
          "value": null,
          "provenance": null,
          "terminology": null
        },
        "window": {
          "value": null,
          "provenance": null,
          "terminology": null
        }
      },
      {
        "row_id": null,
        "name": {
          "value": "Retrieval (RT)",
          "provenance": {
            "origin": "derived",
            "source_section_id": null,
            "source_page": null,
            "raw_phrase": null,
            "confidence": 1.0,
            "verified": true,
            "note": "generated from the visit heading",
            "reviewer_accepted": false
          },
          "terminology": null
        },
        "label": {
          "value": "Retrieval (RT)",
          "provenance": {
            "origin": "extracted",
            "source_section_id": "app-protocol-attachment-lzzt-1-schedule-of-e",
            "source_page": 54,
            "raw_phrase": "RT",
            "confidence": 0.8,
            "verified": true,
            "note": null,
            "reviewer_accepted": false
          },
          "terminology": null
        },
        "description": {
          "value": null,
          "provenance": null,
          "terminology": null
        },
        "type": {
          "value": "Visit",
          "provenance": {
            "origin": "derived",
            "source_section_id": null,
            "source_page": null,
            "raw_phrase": null,
            "confidence": 1.0,
            "verified": true,
            "note": "every scheduled visit",
            "reviewer_accepted": false
          },
          "terminology": {
            "status": "exact",
            "codelist": "C188728",
            "codelist_name": "Encounter Type Value Set Terminology",
            "ct_version": "2026-03-27",
            "code": "C25716",
            "submission_value": "Visit",
            "preferred_term": "Visit",
            "matched_on": "submissionValue",
            "candidates": []
          }
        },
        "environmental_settings": {
          "value": null,
          "provenance": null,
          "terminology": null
        },
        "contact_modes": {
          "value": null,
          "provenance": null,
          "terminology": null
        },
        "transition_start_rule": {
          "value": null,
          "provenance": null,
          "terminology": null
        },
        "transition_end_rule": {
          "value": null,
          "provenance": null,
          "terminology": null
        },
        "window": {
          "value": null,
          "provenance": null,
          "terminology": null
        }
      }
    ],
    "timings": [
      {
        "row_id": null,
        "name": {
          "value": "Visit 3 (Week 0) timing",
          "provenance": {
            "origin": "derived",
            "source_section_id": null,
            "source_page": null,
            "raw_phrase": null,
            "confidence": 1.0,
            "verified": true,
            "note": "generated",
            "reviewer_accepted": false
          },
          "terminology": null
        },
        "label": {
          "value": "Visit 3 (Week 0)",
          "provenance": {
            "origin": "derived",
            "source_section_id": null,
            "source_page": null,
            "raw_phrase": null,
            "confidence": 1.0,
            "verified": true,
            "note": "the timepoint it schedules",
            "reviewer_accepted": false
          },
          "terminology": null
        },
        "description": {
          "value": null,
          "provenance": null,
          "terminology": null
        },
        "type": {
          "value": "Fixed Reference",
          "provenance": {
            "origin": "extracted",
            "source_section_id": "app-protocol-attachment-lzzt-1-schedule-of-e",
            "source_page": 53,
            "raw_phrase": "0",
            "confidence": 0.9,
            "verified": true,
            "note": "timing type",
            "reviewer_accepted": false
          },
          "terminology": {
            "status": "exact",
            "codelist": "C201264",
            "codelist_name": "Timing Type Value Set Terminology",
            "ct_version": "2026-03-27",
            "code": "C201358",
            "submission_value": "Fixed Reference",
            "preferred_term": "Fixed Reference Timing Type",
            "matched_on": "submissionValue",
            "candidates": []
          }
        },
        "relative_from": {
          "value": "Visit 3 (Week 0)",
          "provenance": {
            "origin": "derived",
            "source_section_id": null,
            "source_page": null,
            "raw_phrase": null,
            "confidence": 1.0,
            "verified": true,
            "note": "the timepoint scheduled",
            "reviewer_accepted": false
          },
          "terminology": null
        },
        "relative_to": {
          "value": "Visit 3 (Week 0)",
          "provenance": {
            "origin": "derived",
            "source_section_id": null,
            "source_page": null,
            "raw_phrase": null,
            "confidence": 1.0,
            "verified": true,
            "note": "the timeline's anchor visit",
            "reviewer_accepted": false
          },
          "terminology": null
        },
        "value": {
          "value": "0 days",
          "provenance": {
            "origin": "extracted",
            "source_section_id": "app-protocol-attachment-lzzt-1-schedule-of-e",
            "source_page": 53,
            "raw_phrase": "0",
            "confidence": 0.9,
            "verified": true,
            "note": "planned time",
            "reviewer_accepted": false
          },
          "terminology": null
        },
        "relative_to_from": {
          "value": "S2S",
          "provenance": {
            "origin": "derived",
            "source_section_id": null,
            "source_page": null,
            "raw_phrase": null,
            "confidence": 1.0,
            "verified": true,
            "note": "start to start",
            "reviewer_accepted": false
          },
          "terminology": null
        },
        "window": {
          "value": null,
          "provenance": null,
          "terminology": null
        }
      },
      {
        "row_id": null,
        "name": {
          "value": "Visit 1 (Week -2) timing",
          "provenance": {
            "origin": "derived",
            "source_section_id": null,
            "source_page": null,
            "raw_phrase": null,
            "confidence": 1.0,
            "verified": true,
            "note": "generated",
            "reviewer_accepted": false
          },
          "terminology": null
        },
        "label": {
          "value": "Visit 1 (Week -2)",
          "provenance": {
            "origin": "derived",
            "source_section_id": null,
            "source_page": null,
            "raw_phrase": null,
            "confidence": 1.0,
            "verified": true,
            "note": "the timepoint it schedules",
            "reviewer_accepted": false
          },
          "terminology": null
        },
        "description": {
          "value": null,
          "provenance": null,
          "terminology": null
        },
        "type": {
          "value": "Before",
          "provenance": {
            "origin": "extracted",
            "source_section_id": "app-protocol-attachment-lzzt-1-schedule-of-e",
            "source_page": 53,
            "raw_phrase": "-2",
            "confidence": 0.6,
            "verified": true,
            "note": "timing type",
            "reviewer_accepted": false
          },
          "terminology": {
            "status": "exact",
            "codelist": "C201264",
            "codelist_name": "Timing Type Value Set Terminology",
            "ct_version": "2026-03-27",
            "code": "C201357",
            "submission_value": "Before",
            "preferred_term": "Before Timing Type",
            "matched_on": "submissionValue",
            "candidates": []
          }
        },
        "relative_from": {
          "value": "Visit 1 (Week -2)",
          "provenance": {
            "origin": "derived",
            "source_section_id": null,
            "source_page": null,
            "raw_phrase": null,
            "confidence": 1.0,
            "verified": true,
            "note": "the timepoint scheduled",
            "reviewer_accepted": false
          },
          "terminology": null
        },
        "relative_to": {
          "value": "Visit 3 (Week 0)",
          "provenance": {
            "origin": "derived",
            "source_section_id": null,
            "source_page": null,
            "raw_phrase": null,
            "confidence": 1.0,
            "verified": true,
            "note": "the timeline's anchor visit",
            "reviewer_accepted": false
          },
          "terminology": null
        },
        "value": {
          "value": "2 weeks",
          "provenance": {
            "origin": "extracted",
            "source_section_id": "app-protocol-attachment-lzzt-1-schedule-of-e",
            "source_page": 53,
            "raw_phrase": "-2",
            "confidence": 0.6,
            "verified": true,
            "note": "planned time",
            "reviewer_accepted": false
          },
          "terminology": null
        },
        "relative_to_from": {
          "value": "S2S",
          "provenance": {
            "origin": "derived",
            "source_section_id": null,
            "source_page": null,
            "raw_phrase": null,
            "confidence": 1.0,
            "verified": true,
            "note": "start to start",
            "reviewer_accepted": false
          },
          "terminology": null
        },
        "window": {
          "value": null,
          "provenance": null,
          "terminology": null
        }
      },
      {
        "row_id": null,
        "name": {
          "value": "Visit 4 (Week 2) timing",
          "provenance": {
            "origin": "derived",
            "source_section_id": null,
            "source_page": null,
            "raw_phrase": null,
            "confidence": 1.0,
            "verified": true,
            "note": "generated",
            "reviewer_accepted": false
          },
          "terminology": null
        },
        "label": {
          "value": "Visit 4 (Week 2)",
          "provenance": {
            "origin": "derived",
            "source_section_id": null,
            "source_page": null,
            "raw_phrase": null,
            "confidence": 1.0,
            "verified": true,
            "note": "the timepoint it schedules",
            "reviewer_accepted": false
          },
          "terminology": null
        },
        "description": {
          "value": null,
          "provenance": null,
          "terminology": null
        },
        "type": {
          "value": "After",
          "provenance": {
            "origin": "extracted",
            "source_section_id": "app-protocol-attachment-lzzt-1-schedule-of-e",
            "source_page": 53,
            "raw_phrase": "2",
            "confidence": 0.7,
            "verified": true,
            "note": "timing type",
            "reviewer_accepted": false
          },
          "terminology": {
            "status": "exact",
            "codelist": "C201264",
            "codelist_name": "Timing Type Value Set Terminology",
            "ct_version": "2026-03-27",
            "code": "C201356",
            "submission_value": "After",
            "preferred_term": "After Timing Type",
            "matched_on": "submissionValue",
            "candidates": []
          }
        },
        "relative_from": {
          "value": "Visit 4 (Week 2)",
          "provenance": {
            "origin": "derived",
            "source_section_id": null,
            "source_page": null,
            "raw_phrase": null,
            "confidence": 1.0,
            "verified": true,
            "note": "the timepoint scheduled",
            "reviewer_accepted": false
          },
          "terminology": null
        },
        "relative_to": {
          "value": "Visit 3 (Week 0)",
          "provenance": {
            "origin": "derived",
            "source_section_id": null,
            "source_page": null,
            "raw_phrase": null,
            "confidence": 1.0,
            "verified": true,
            "note": "the timeline's anchor visit",
            "reviewer_accepted": false
          },
          "terminology": null
        },
        "value": {
          "value": "2 weeks",
          "provenance": {
            "origin": "extracted",
            "source_section_id": "app-protocol-attachment-lzzt-1-schedule-of-e",
            "source_page": 53,
            "raw_phrase": "2",
            "confidence": 0.7,
            "verified": true,
            "note": "planned time",
            "reviewer_accepted": false
          },
          "terminology": null
        },
        "relative_to_from": {
          "value": "S2S",
          "provenance": {
            "origin": "derived",
            "source_section_id": null,
            "source_page": null,
            "raw_phrase": null,
            "confidence": 1.0,
            "verified": true,
            "note": "start to start",
            "reviewer_accepted": false
          },
          "terminology": null
        },
        "window": {
          "value": null,
          "provenance": null,
          "terminology": null
        }
      },
      {
        "row_id": null,
        "name": {
          "value": "Visit 5 (Week 4) timing",
          "provenance": {
            "origin": "derived",
            "source_section_id": null,
            "source_page": null,
            "raw_phrase": null,
            "confidence": 1.0,
            "verified": true,
            "note": "generated",
            "reviewer_accepted": false
          },
          "terminology": null
        },
        "label": {
          "value": "Visit 5 (Week 4)",
          "provenance": {
            "origin": "derived",
            "source_section_id": null,
            "source_page": null,
            "raw_phrase": null,
            "confidence": 1.0,
            "verified": true,
            "note": "the timepoint it schedules",
            "reviewer_accepted": false
          },
          "terminology": null
        },
        "description": {
          "value": null,
          "provenance": null,
          "terminology": null
        },
        "type": {
          "value": "After",
          "provenance": {
            "origin": "extracted",
            "source_section_id": "app-protocol-attachment-lzzt-1-schedule-of-e",
            "source_page": 53,
            "raw_phrase": "4",
            "confidence": 0.7,
            "verified": true,
            "note": "timing type",
            "reviewer_accepted": false
          },
          "terminology": {
            "status": "exact",
            "codelist": "C201264",
            "codelist_name": "Timing Type Value Set Terminology",
            "ct_version": "2026-03-27",
            "code": "C201356",
            "submission_value": "After",
            "preferred_term": "After Timing Type",
            "matched_on": "submissionValue",
            "candidates": []
          }
        },
        "relative_from": {
          "value": "Visit 5 (Week 4)",
          "provenance": {
            "origin": "derived",
            "source_section_id": null,
            "source_page": null,
            "raw_phrase": null,
            "confidence": 1.0,
            "verified": true,
            "note": "the timepoint scheduled",
            "reviewer_accepted": false
          },
          "terminology": null
        },
        "relative_to": {
          "value": "Visit 3 (Week 0)",
          "provenance": {
            "origin": "derived",
            "source_section_id": null,
            "source_page": null,
            "raw_phrase": null,
            "confidence": 1.0,
            "verified": true,
            "note": "the timeline's anchor visit",
            "reviewer_accepted": false
          },
          "terminology": null
        },
        "value": {
          "value": "4 weeks",
          "provenance": {
            "origin": "extracted",
            "source_section_id": "app-protocol-attachment-lzzt-1-schedule-of-e",
            "source_page": 53,
            "raw_phrase": "4",
            "confidence": 0.7,
            "verified": true,
            "note": "planned time",
            "reviewer_accepted": false
          },
          "terminology": null
        },
        "relative_to_from": {
          "value": "S2S",
          "provenance": {
            "origin": "derived",
            "source_section_id": null,
            "source_page": null,
            "raw_phrase": null,
            "confidence": 1.0,
            "verified": true,
            "note": "start to start",
            "reviewer_accepted": false
          },
          "terminology": null
        },
        "window": {
          "value": null,
          "provenance": null,
          "terminology": null
        }
      },
      {
        "row_id": null,
        "name": {
          "value": "Visit 7 (Week 6) timing",
          "provenance": {
            "origin": "derived",
            "source_section_id": null,
            "source_page": null,
            "raw_phrase": null,
            "confidence": 1.0,
            "verified": true,
            "note": "generated",
            "reviewer_accepted": false
          },
          "terminology": null
        },
        "label": {
          "value": "Visit 7 (Week 6)",
          "provenance": {
            "origin": "derived",
            "source_section_id": null,
            "source_page": null,
            "raw_phrase": null,
            "confidence": 1.0,
            "verified": true,
            "note": "the timepoint it schedules",
            "reviewer_accepted": false
          },
          "terminology": null
        },
        "description": {
          "value": null,
          "provenance": null,
          "terminology": null
        },
        "type": {
          "value": "After",
          "provenance": {
            "origin": "extracted",
            "source_section_id": "app-protocol-attachment-lzzt-1-schedule-of-e",
            "source_page": 53,
            "raw_phrase": "6",
            "confidence": 0.7,
            "verified": true,
            "note": "timing type",
            "reviewer_accepted": false
          },
          "terminology": {
            "status": "exact",
            "codelist": "C201264",
            "codelist_name": "Timing Type Value Set Terminology",
            "ct_version": "2026-03-27",
            "code": "C201356",
            "submission_value": "After",
            "preferred_term": "After Timing Type",
            "matched_on": "submissionValue",
            "candidates": []
          }
        },
        "relative_from": {
          "value": "Visit 7 (Week 6)",
          "provenance": {
            "origin": "derived",
            "source_section_id": null,
            "source_page": null,
            "raw_phrase": null,
            "confidence": 1.0,
            "verified": true,
            "note": "the timepoint scheduled",
            "reviewer_accepted": false
          },
          "terminology": null
        },
        "relative_to": {
          "value": "Visit 3 (Week 0)",
          "provenance": {
            "origin": "derived",
            "source_section_id": null,
            "source_page": null,
            "raw_phrase": null,
            "confidence": 1.0,
            "verified": true,
            "note": "the timeline's anchor visit",
            "reviewer_accepted": false
          },
          "terminology": null
        },
        "value": {
          "value": "6 weeks",
          "provenance": {
            "origin": "extracted",
            "source_section_id": "app-protocol-attachment-lzzt-1-schedule-of-e",
            "source_page": 53,
            "raw_phrase": "6",
            "confidence": 0.7,
            "verified": true,
            "note": "planned time",
            "reviewer_accepted": false
          },
          "terminology": null
        },
        "relative_to_from": {
          "value": "S2S",
          "provenance": {
            "origin": "derived",
            "source_section_id": null,
            "source_page": null,
            "raw_phrase": null,
            "confidence": 1.0,
            "verified": true,
            "note": "start to start",
            "reviewer_accepted": false
          },
          "terminology": null
        },
        "window": {
          "value": null,
          "provenance": null,
          "terminology": null
        }
      },
      {
        "row_id": null,
        "name": {
          "value": "Visit 8 (Week 8) timing",
          "provenance": {
            "origin": "derived",
            "source_section_id": null,
            "source_page": null,
            "raw_phrase": null,
            "confidence": 1.0,
            "verified": true,
            "note": "generated",
            "reviewer_accepted": false
          },
          "terminology": null
        },
        "label": {
          "value": "Visit 8 (Week 8)",
          "provenance": {
            "origin": "derived",
            "source_section_id": null,
            "source_page": null,
            "raw_phrase": null,
            "confidence": 1.0,
            "verified": true,
            "note": "the timepoint it schedules",
            "reviewer_accepted": false
          },
          "terminology": null
        },
        "description": {
          "value": null,
          "provenance": null,
          "terminology": null
        },
        "type": {
          "value": "After",
          "provenance": {
            "origin": "extracted",
            "source_section_id": "app-protocol-attachment-lzzt-1-schedule-of-e",
            "source_page": 53,
            "raw_phrase": "8",
            "confidence": 0.7,
            "verified": true,
            "note": "timing type",
            "reviewer_accepted": false
          },
          "terminology": {
            "status": "exact",
            "codelist": "C201264",
            "codelist_name": "Timing Type Value Set Terminology",
            "ct_version": "2026-03-27",
            "code": "C201356",
            "submission_value": "After",
            "preferred_term": "After Timing Type",
            "matched_on": "submissionValue",
            "candidates": []
          }
        },
        "relative_from": {
          "value": "Visit 8 (Week 8)",
          "provenance": {
            "origin": "derived",
            "source_section_id": null,
            "source_page": null,
            "raw_phrase": null,
            "confidence": 1.0,
            "verified": true,
            "note": "the timepoint scheduled",
            "reviewer_accepted": false
          },
          "terminology": null
        },
        "relative_to": {
          "value": "Visit 3 (Week 0)",
          "provenance": {
            "origin": "derived",
            "source_section_id": null,
            "source_page": null,
            "raw_phrase": null,
            "confidence": 1.0,
            "verified": true,
            "note": "the timeline's anchor visit",
            "reviewer_accepted": false
          },
          "terminology": null
        },
        "value": {
          "value": "8 weeks",
          "provenance": {
            "origin": "extracted",
            "source_section_id": "app-protocol-attachment-lzzt-1-schedule-of-e",
            "source_page": 53,
            "raw_phrase": "8",
            "confidence": 0.7,
            "verified": true,
            "note": "planned time",
            "reviewer_accepted": false
          },
          "terminology": null
        },
        "relative_to_from": {
          "value": "S2S",
          "provenance": {
            "origin": "derived",
            "source_section_id": null,
            "source_page": null,
            "raw_phrase": null,
            "confidence": 1.0,
            "verified": true,
            "note": "start to start",
            "reviewer_accepted": false
          },
          "terminology": null
        },
        "window": {
          "value": null,
          "provenance": null,
          "terminology": null
        }
      },
      {
        "row_id": null,
        "name": {
          "value": "Visit 9 (Week 12) timing",
          "provenance": {
            "origin": "derived",
            "source_section_id": null,
            "source_page": null,
            "raw_phrase": null,
            "confidence": 1.0,
            "verified": true,
            "note": "generated",
            "reviewer_accepted": false
          },
          "terminology": null
        },
        "label": {
          "value": "Visit 9 (Week 12)",
          "provenance": {
            "origin": "derived",
            "source_section_id": null,
            "source_page": null,
            "raw_phrase": null,
            "confidence": 1.0,
            "verified": true,
            "note": "the timepoint it schedules",
            "reviewer_accepted": false
          },
          "terminology": null
        },
        "description": {
          "value": null,
          "provenance": null,
          "terminology": null
        },
        "type": {
          "value": "After",
          "provenance": {
            "origin": "extracted",
            "source_section_id": "app-protocol-attachment-lzzt-1-schedule-of-e",
            "source_page": 54,
            "raw_phrase": "12",
            "confidence": 0.7,
            "verified": true,
            "note": "timing type",
            "reviewer_accepted": false
          },
          "terminology": {
            "status": "exact",
            "codelist": "C201264",
            "codelist_name": "Timing Type Value Set Terminology",
            "ct_version": "2026-03-27",
            "code": "C201356",
            "submission_value": "After",
            "preferred_term": "After Timing Type",
            "matched_on": "submissionValue",
            "candidates": []
          }
        },
        "relative_from": {
          "value": "Visit 9 (Week 12)",
          "provenance": {
            "origin": "derived",
            "source_section_id": null,
            "source_page": null,
            "raw_phrase": null,
            "confidence": 1.0,
            "verified": true,
            "note": "the timepoint scheduled",
            "reviewer_accepted": false
          },
          "terminology": null
        },
        "relative_to": {
          "value": "Visit 3 (Week 0)",
          "provenance": {
            "origin": "derived",
            "source_section_id": null,
            "source_page": null,
            "raw_phrase": null,
            "confidence": 1.0,
            "verified": true,
            "note": "the timeline's anchor visit",
            "reviewer_accepted": false
          },
          "terminology": null
        },
        "value": {
          "value": "12 weeks",
          "provenance": {
            "origin": "extracted",
            "source_section_id": "app-protocol-attachment-lzzt-1-schedule-of-e",
            "source_page": 54,
            "raw_phrase": "12",
            "confidence": 0.7,
            "verified": true,
            "note": "planned time",
            "reviewer_accepted": false
          },
          "terminology": null
        },
        "relative_to_from": {
          "value": "S2S",
          "provenance": {
            "origin": "derived",
            "source_section_id": null,
            "source_page": null,
            "raw_phrase": null,
            "confidence": 1.0,
            "verified": true,
            "note": "start to start",
            "reviewer_accepted": false
          },
          "terminology": null
        },
        "window": {
          "value": null,
          "provenance": null,
          "terminology": null
        }
      },
      {
        "row_id": null,
        "name": {
          "value": "Visit 10 (Week 16) timing",
          "provenance": {
            "origin": "derived",
            "source_section_id": null,
            "source_page": null,
            "raw_phrase": null,
            "confidence": 1.0,
            "verified": true,
            "note": "generated",
            "reviewer_accepted": false
          },
          "terminology": null
        },
        "label": {
          "value": "Visit 10 (Week 16)",
          "provenance": {
            "origin": "derived",
            "source_section_id": null,
            "source_page": null,
            "raw_phrase": null,
            "confidence": 1.0,
            "verified": true,
            "note": "the timepoint it schedules",
            "reviewer_accepted": false
          },
          "terminology": null
        },
        "description": {
          "value": null,
          "provenance": null,
          "terminology": null
        },
        "type": {
          "value": "After",
          "provenance": {
            "origin": "extracted",
            "source_section_id": "app-protocol-attachment-lzzt-1-schedule-of-e",
            "source_page": 54,
            "raw_phrase": "16",
            "confidence": 0.7,
            "verified": true,
            "note": "timing type",
            "reviewer_accepted": false
          },
          "terminology": {
            "status": "exact",
            "codelist": "C201264",
            "codelist_name": "Timing Type Value Set Terminology",
            "ct_version": "2026-03-27",
            "code": "C201356",
            "submission_value": "After",
            "preferred_term": "After Timing Type",
            "matched_on": "submissionValue",
            "candidates": []
          }
        },
        "relative_from": {
          "value": "Visit 10 (Week 16)",
          "provenance": {
            "origin": "derived",
            "source_section_id": null,
            "source_page": null,
            "raw_phrase": null,
            "confidence": 1.0,
            "verified": true,
            "note": "the timepoint scheduled",
            "reviewer_accepted": false
          },
          "terminology": null
        },
        "relative_to": {
          "value": "Visit 3 (Week 0)",
          "provenance": {
            "origin": "derived",
            "source_section_id": null,
            "source_page": null,
            "raw_phrase": null,
            "confidence": 1.0,
            "verified": true,
            "note": "the timeline's anchor visit",
            "reviewer_accepted": false
          },
          "terminology": null
        },
        "value": {
          "value": "16 weeks",
          "provenance": {
            "origin": "extracted",
            "source_section_id": "app-protocol-attachment-lzzt-1-schedule-of-e",
            "source_page": 54,
            "raw_phrase": "16",
            "confidence": 0.7,
            "verified": true,
            "note": "planned time",
            "reviewer_accepted": false
          },
          "terminology": null
        },
        "relative_to_from": {
          "value": "S2S",
          "provenance": {
            "origin": "derived",
            "source_section_id": null,
            "source_page": null,
            "raw_phrase": null,
            "confidence": 1.0,
            "verified": true,
            "note": "start to start",
            "reviewer_accepted": false
          },
          "terminology": null
        },
        "window": {
          "value": null,
          "provenance": null,
          "terminology": null
        }
      },
      {
        "row_id": null,
        "name": {
          "value": "Visit 11 (Week 20) timing",
          "provenance": {
            "origin": "derived",
            "source_section_id": null,
            "source_page": null,
            "raw_phrase": null,
            "confidence": 1.0,
            "verified": true,
            "note": "generated",
            "reviewer_accepted": false
          },
          "terminology": null
        },
        "label": {
          "value": "Visit 11 (Week 20)",
          "provenance": {
            "origin": "derived",
            "source_section_id": null,
            "source_page": null,
            "raw_phrase": null,
            "confidence": 1.0,
            "verified": true,
            "note": "the timepoint it schedules",
            "reviewer_accepted": false
          },
          "terminology": null
        },
        "description": {
          "value": null,
          "provenance": null,
          "terminology": null
        },
        "type": {
          "value": "After",
          "provenance": {
            "origin": "extracted",
            "source_section_id": "app-protocol-attachment-lzzt-1-schedule-of-e",
            "source_page": 54,
            "raw_phrase": "20",
            "confidence": 0.7,
            "verified": true,
            "note": "timing type",
            "reviewer_accepted": false
          },
          "terminology": {
            "status": "exact",
            "codelist": "C201264",
            "codelist_name": "Timing Type Value Set Terminology",
            "ct_version": "2026-03-27",
            "code": "C201356",
            "submission_value": "After",
            "preferred_term": "After Timing Type",
            "matched_on": "submissionValue",
            "candidates": []
          }
        },
        "relative_from": {
          "value": "Visit 11 (Week 20)",
          "provenance": {
            "origin": "derived",
            "source_section_id": null,
            "source_page": null,
            "raw_phrase": null,
            "confidence": 1.0,
            "verified": true,
            "note": "the timepoint scheduled",
            "reviewer_accepted": false
          },
          "terminology": null
        },
        "relative_to": {
          "value": "Visit 3 (Week 0)",
          "provenance": {
            "origin": "derived",
            "source_section_id": null,
            "source_page": null,
            "raw_phrase": null,
            "confidence": 1.0,
            "verified": true,
            "note": "the timeline's anchor visit",
            "reviewer_accepted": false
          },
          "terminology": null
        },
        "value": {
          "value": "20 weeks",
          "provenance": {
            "origin": "extracted",
            "source_section_id": "app-protocol-attachment-lzzt-1-schedule-of-e",
            "source_page": 54,
            "raw_phrase": "20",
            "confidence": 0.7,
            "verified": true,
            "note": "planned time",
            "reviewer_accepted": false
          },
          "terminology": null
        },
        "relative_to_from": {
          "value": "S2S",
          "provenance": {
            "origin": "derived",
            "source_section_id": null,
            "source_page": null,
            "raw_phrase": null,
            "confidence": 1.0,
            "verified": true,
            "note": "start to start",
            "reviewer_accepted": false
          },
          "terminology": null
        },
        "window": {
          "value": null,
          "provenance": null,
          "terminology": null
        }
      },
      {
        "row_id": null,
        "name": {
          "value": "Visit 12 (Week 24) timing",
          "provenance": {
            "origin": "derived",
            "source_section_id": null,
            "source_page": null,
            "raw_phrase": null,
            "confidence": 1.0,
            "verified": true,
            "note": "generated",
            "reviewer_accepted": false
          },
          "terminology": null
        },
        "label": {
          "value": "Visit 12 (Week 24)",
          "provenance": {
            "origin": "derived",
            "source_section_id": null,
            "source_page": null,
            "raw_phrase": null,
            "confidence": 1.0,
            "verified": true,
            "note": "the timepoint it schedules",
            "reviewer_accepted": false
          },
          "terminology": null
        },
        "description": {
          "value": null,
          "provenance": null,
          "terminology": null
        },
        "type": {
          "value": "After",
          "provenance": {
            "origin": "extracted",
            "source_section_id": "app-protocol-attachment-lzzt-1-schedule-of-e",
            "source_page": 54,
            "raw_phrase": "24",
            "confidence": 0.7,
            "verified": true,
            "note": "timing type",
            "reviewer_accepted": false
          },
          "terminology": {
            "status": "exact",
            "codelist": "C201264",
            "codelist_name": "Timing Type Value Set Terminology",
            "ct_version": "2026-03-27",
            "code": "C201356",
            "submission_value": "After",
            "preferred_term": "After Timing Type",
            "matched_on": "submissionValue",
            "candidates": []
          }
        },
        "relative_from": {
          "value": "Visit 12 (Week 24)",
          "provenance": {
            "origin": "derived",
            "source_section_id": null,
            "source_page": null,
            "raw_phrase": null,
            "confidence": 1.0,
            "verified": true,
            "note": "the timepoint scheduled",
            "reviewer_accepted": false
          },
          "terminology": null
        },
        "relative_to": {
          "value": "Visit 3 (Week 0)",
          "provenance": {
            "origin": "derived",
            "source_section_id": null,
            "source_page": null,
            "raw_phrase": null,
            "confidence": 1.0,
            "verified": true,
            "note": "the timeline's anchor visit",
            "reviewer_accepted": false
          },
          "terminology": null
        },
        "value": {
          "value": "24 weeks",
          "provenance": {
            "origin": "extracted",
            "source_section_id": "app-protocol-attachment-lzzt-1-schedule-of-e",
            "source_page": 54,
            "raw_phrase": "24",
            "confidence": 0.7,
            "verified": true,
            "note": "planned time",
            "reviewer_accepted": false
          },
          "terminology": null
        },
        "relative_to_from": {
          "value": "S2S",
          "provenance": {
            "origin": "derived",
            "source_section_id": null,
            "source_page": null,
            "raw_phrase": null,
            "confidence": 1.0,
            "verified": true,
            "note": "start to start",
            "reviewer_accepted": false
          },
          "terminology": null
        },
        "window": {
          "value": null,
          "provenance": null,
          "terminology": null
        }
      },
      {
        "row_id": null,
        "name": {
          "value": "Visit 13 (Week 26) timing",
          "provenance": {
            "origin": "derived",
            "source_section_id": null,
            "source_page": null,
            "raw_phrase": null,
            "confidence": 1.0,
            "verified": true,
            "note": "generated",
            "reviewer_accepted": false
          },
          "terminology": null
        },
        "label": {
          "value": "Visit 13 (Week 26)",
          "provenance": {
            "origin": "derived",
            "source_section_id": null,
            "source_page": null,
            "raw_phrase": null,
            "confidence": 1.0,
            "verified": true,
            "note": "the timepoint it schedules",
            "reviewer_accepted": false
          },
          "terminology": null
        },
        "description": {
          "value": null,
          "provenance": null,
          "terminology": null
        },
        "type": {
          "value": "After",
          "provenance": {
            "origin": "extracted",
            "source_section_id": "app-protocol-attachment-lzzt-1-schedule-of-e",
            "source_page": 54,
            "raw_phrase": "26",
            "confidence": 0.7,
            "verified": true,
            "note": "timing type",
            "reviewer_accepted": false
          },
          "terminology": {
            "status": "exact",
            "codelist": "C201264",
            "codelist_name": "Timing Type Value Set Terminology",
            "ct_version": "2026-03-27",
            "code": "C201356",
            "submission_value": "After",
            "preferred_term": "After Timing Type",
            "matched_on": "submissionValue",
            "candidates": []
          }
        },
        "relative_from": {
          "value": "Visit 13 (Week 26)",
          "provenance": {
            "origin": "derived",
            "source_section_id": null,
            "source_page": null,
            "raw_phrase": null,
            "confidence": 1.0,
            "verified": true,
            "note": "the timepoint scheduled",
            "reviewer_accepted": false
          },
          "terminology": null
        },
        "relative_to": {
          "value": "Visit 3 (Week 0)",
          "provenance": {
            "origin": "derived",
            "source_section_id": null,
            "source_page": null,
            "raw_phrase": null,
            "confidence": 1.0,
            "verified": true,
            "note": "the timeline's anchor visit",
            "reviewer_accepted": false
          },
          "terminology": null
        },
        "value": {
          "value": "26 weeks",
          "provenance": {
            "origin": "extracted",
            "source_section_id": "app-protocol-attachment-lzzt-1-schedule-of-e",
            "source_page": 54,
            "raw_phrase": "26",
            "confidence": 0.7,
            "verified": true,
            "note": "planned time",
            "reviewer_accepted": false
          },
          "terminology": null
        },
        "relative_to_from": {
          "value": "S2S",
          "provenance": {
            "origin": "derived",
            "source_section_id": null,
            "source_page": null,
            "raw_phrase": null,
            "confidence": 1.0,
            "verified": true,
            "note": "start to start",
            "reviewer_accepted": false
          },
          "terminology": null
        },
        "window": {
          "value": null,
          "provenance": null,
          "terminology": null
        }
      }
    ],
    "timelines": [
      {
        "row_id": null,
        "name": {
          "value": "Main Timeline",
          "provenance": {
            "origin": "derived",
            "source_section_id": null,
            "source_page": null,
            "raw_phrase": null,
            "confidence": 1.0,
            "verified": true,
            "note": "generated",
            "reviewer_accepted": false
          },
          "terminology": null
        },
        "label": {
          "value": "Schedule of Events for Protocol H2Q-MC-LZZT(c)",
          "provenance": {
            "origin": "derived",
            "source_section_id": null,
            "source_page": null,
            "raw_phrase": null,
            "confidence": 1.0,
            "verified": true,
            "note": "the schedule's title as the model read it",
            "reviewer_accepted": false
          },
          "terminology": null
        },
        "description": {
          "value": "Main schedule of visits and procedures for the study, from Screening through Retrieval",
          "provenance": {
            "origin": "derived",
            "source_section_id": null,
            "source_page": null,
            "raw_phrase": null,
            "confidence": 1.0,
            "verified": true,
            "note": "summary written by the extraction model",
            "reviewer_accepted": false
          },
          "terminology": null
        },
        "main": {
          "value": "Y",
          "provenance": {
            "origin": "derived",
            "source_section_id": null,
            "source_page": null,
            "raw_phrase": null,
            "confidence": 1.0,
            "verified": true,
            "note": "the main schedule of activities",
            "reviewer_accepted": false
          },
          "terminology": null
        },
        "entry_condition": {
          "value": "Participant enters the study",
          "provenance": {
            "origin": "derived",
            "source_section_id": null,
            "source_page": null,
            "raw_phrase": null,
            "confidence": 1.0,
            "verified": true,
            "note": "generic entry condition: the protocol states none; replace if it does",
            "reviewer_accepted": false
          },
          "terminology": null
        },
        "sheet_name": {
          "value": "main-timeline",
          "provenance": {
            "origin": "derived",
            "source_section_id": null,
            "source_page": null,
            "raw_phrase": null,
            "confidence": 1.0,
            "verified": true,
            "note": "deterministic sheet name",
            "reviewer_accepted": false
          },
          "terminology": null
        }
      }
    ],
    "timepoints": [
      {
        "row_id": null,
        "timeline": {
          "value": "Main Timeline",
          "provenance": {
            "origin": "derived",
            "source_section_id": null,
            "source_page": null,
            "raw_phrase": null,
            "confidence": 1.0,
            "verified": true,
            "note": "the timeline this column belongs to",
            "reviewer_accepted": false
          },
          "terminology": null
        },
        "name": {
          "value": "Visit 1 (Week -2)",
          "provenance": {
            "origin": "derived",
            "source_section_id": null,
            "source_page": null,
            "raw_phrase": null,
            "confidence": 1.0,
            "verified": true,
            "note": "generated from the visit heading",
            "reviewer_accepted": false
          },
          "terminology": null
        },
        "label": {
          "value": "Visit 1 (Week -2)",
          "provenance": {
            "origin": "extracted",
            "source_section_id": "app-protocol-attachment-lzzt-1-schedule-of-e",
            "source_page": 53,
            "raw_phrase": "-2",
            "confidence": 0.8,
            "verified": true,
            "note": null,
            "reviewer_accepted": false
          },
          "terminology": null
        },
        "description": {
          "value": null,
          "provenance": null,
          "terminology": null
        },
        "type": {
          "value": "Activity",
          "provenance": {
            "origin": "derived",
            "source_section_id": null,
            "source_page": null,
            "raw_phrase": null,
            "confidence": 1.0,
            "verified": true,
            "note": "a column of scheduled activities",
            "reviewer_accepted": false
          },
          "terminology": null
        },
        "default": {
          "value": "Visit 2 (Week -.3)",
          "provenance": {
            "origin": "derived",
            "source_section_id": null,
            "source_page": null,
            "raw_phrase": null,
            "confidence": 1.0,
            "verified": true,
            "note": "the next column",
            "reviewer_accepted": false
          },
          "terminology": null
        },
        "condition": {
          "value": null,
          "provenance": null,
          "terminology": null
        },
        "epoch": {
          "value": "Screening",
          "provenance": {
            "origin": "extracted",
            "source_section_id": "app-protocol-attachment-lzzt-1-schedule-of-e",
            "source_page": 53,
            "raw_phrase": null,
            "confidence": 0.8,
            "verified": true,
            "note": "the epoch the model placed this column in",
            "reviewer_accepted": false
          },
          "terminology": null
        },
        "encounter": {
          "value": "Visit 1 (Week -2)",
          "provenance": {
            "origin": "extracted",
            "source_section_id": "app-protocol-attachment-lzzt-1-schedule-of-e",
            "source_page": 53,
            "raw_phrase": null,
            "confidence": 0.8,
            "verified": true,
            "note": "the visit this timepoint happens at",
            "reviewer_accepted": false
          },
          "terminology": null
        }
      },
      {
        "row_id": null,
        "timeline": {
          "value": "Main Timeline",
          "provenance": {
            "origin": "derived",
            "source_section_id": null,
            "source_page": null,
            "raw_phrase": null,
            "confidence": 1.0,
            "verified": true,
            "note": "the timeline this column belongs to",
            "reviewer_accepted": false
          },
          "terminology": null
        },
        "name": {
          "value": "Visit 2 (Week -.3)",
          "provenance": {
            "origin": "derived",
            "source_section_id": null,
            "source_page": null,
            "raw_phrase": null,
            "confidence": 1.0,
            "verified": true,
            "note": "generated from the visit heading",
            "reviewer_accepted": false
          },
          "terminology": null
        },
        "label": {
          "value": "Visit 2 (Week -.3)",
          "provenance": {
            "origin": "extracted",
            "source_section_id": "app-protocol-attachment-lzzt-1-schedule-of-e",
            "source_page": 53,
            "raw_phrase": "-.3",
            "confidence": 0.7,
            "verified": true,
            "note": null,
            "reviewer_accepted": false
          },
          "terminology": null
        },
        "description": {
          "value": null,
          "provenance": null,
          "terminology": null
        },
        "type": {
          "value": "Activity",
          "provenance": {
            "origin": "derived",
            "source_section_id": null,
            "source_page": null,
            "raw_phrase": null,
            "confidence": 1.0,
            "verified": true,
            "note": "a column of scheduled activities",
            "reviewer_accepted": false
          },
          "terminology": null
        },
        "default": {
          "value": "Visit 3 (Week 0)",
          "provenance": {
            "origin": "derived",
            "source_section_id": null,
            "source_page": null,
            "raw_phrase": null,
            "confidence": 1.0,
            "verified": true,
            "note": "the next column",
            "reviewer_accepted": false
          },
          "terminology": null
        },
        "condition": {
          "value": null,
          "provenance": null,
          "terminology": null
        },
        "epoch": {
          "value": "Screening",
          "provenance": {
            "origin": "extracted",
            "source_section_id": "app-protocol-attachment-lzzt-1-schedule-of-e",
            "source_page": 53,
            "raw_phrase": null,
            "confidence": 0.7,
            "verified": true,
            "note": "the epoch the model placed this column in",
            "reviewer_accepted": false
          },
          "terminology": null
        },
        "encounter": {
          "value": "Visit 2 (Week -.3)",
          "provenance": {
            "origin": "extracted",
            "source_section_id": "app-protocol-attachment-lzzt-1-schedule-of-e",
            "source_page": 53,
            "raw_phrase": null,
            "confidence": 0.7,
            "verified": true,
            "note": "the visit this timepoint happens at",
            "reviewer_accepted": false
          },
          "terminology": null
        }
      },
      {
        "row_id": null,
        "timeline": {
          "value": "Main Timeline",
          "provenance": {
            "origin": "derived",
            "source_section_id": null,
            "source_page": null,
            "raw_phrase": null,
            "confidence": 1.0,
            "verified": true,
            "note": "the timeline this column belongs to",
            "reviewer_accepted": false
          },
          "terminology": null
        },
        "name": {
          "value": "Visit 3 (Week 0)",
          "provenance": {
            "origin": "derived",
            "source_section_id": null,
            "source_page": null,
            "raw_phrase": null,
            "confidence": 1.0,
            "verified": true,
            "note": "generated from the visit heading",
            "reviewer_accepted": false
          },
          "terminology": null
        },
        "label": {
          "value": "Visit 3 (Week 0)",
          "provenance": {
            "origin": "extracted",
            "source_section_id": "app-protocol-attachment-lzzt-1-schedule-of-e",
            "source_page": 53,
            "raw_phrase": "0",
            "confidence": 0.9,
            "verified": true,
            "note": null,
            "reviewer_accepted": false
          },
          "terminology": null
        },
        "description": {
          "value": null,
          "provenance": null,
          "terminology": null
        },
        "type": {
          "value": "Activity",
          "provenance": {
            "origin": "derived",
            "source_section_id": null,
            "source_page": null,
            "raw_phrase": null,
            "confidence": 1.0,
            "verified": true,
            "note": "a column of scheduled activities",
            "reviewer_accepted": false
          },
          "terminology": null
        },
        "default": {
          "value": "Visit 4 (Week 2)",
          "provenance": {
            "origin": "derived",
            "source_section_id": null,
            "source_page": null,
            "raw_phrase": null,
            "confidence": 1.0,
            "verified": true,
            "note": "the next column",
            "reviewer_accepted": false
          },
          "terminology": null
        },
        "condition": {
          "value": null,
          "provenance": null,
          "terminology": null
        },
        "epoch": {
          "value": "Treatment",
          "provenance": {
            "origin": "extracted",
            "source_section_id": "app-protocol-attachment-lzzt-1-schedule-of-e",
            "source_page": 53,
            "raw_phrase": null,
            "confidence": 0.8,
            "verified": true,
            "note": "the epoch the model placed this column in",
            "reviewer_accepted": false
          },
          "terminology": null
        },
        "encounter": {
          "value": "Visit 3 (Week 0)",
          "provenance": {
            "origin": "extracted",
            "source_section_id": "app-protocol-attachment-lzzt-1-schedule-of-e",
            "source_page": 53,
            "raw_phrase": null,
            "confidence": 0.8,
            "verified": true,
            "note": "the visit this timepoint happens at",
            "reviewer_accepted": false
          },
          "terminology": null
        }
      },
      {
        "row_id": null,
        "timeline": {
          "value": "Main Timeline",
          "provenance": {
            "origin": "derived",
            "source_section_id": null,
            "source_page": null,
            "raw_phrase": null,
            "confidence": 1.0,
            "verified": true,
            "note": "the timeline this column belongs to",
            "reviewer_accepted": false
          },
          "terminology": null
        },
        "name": {
          "value": "Visit 4 (Week 2)",
          "provenance": {
            "origin": "derived",
            "source_section_id": null,
            "source_page": null,
            "raw_phrase": null,
            "confidence": 1.0,
            "verified": true,
            "note": "generated from the visit heading",
            "reviewer_accepted": false
          },
          "terminology": null
        },
        "label": {
          "value": "Visit 4 (Week 2)",
          "provenance": {
            "origin": "extracted",
            "source_section_id": "app-protocol-attachment-lzzt-1-schedule-of-e",
            "source_page": 53,
            "raw_phrase": "2",
            "confidence": 0.85,
            "verified": true,
            "note": null,
            "reviewer_accepted": false
          },
          "terminology": null
        },
        "description": {
          "value": null,
          "provenance": null,
          "terminology": null
        },
        "type": {
          "value": "Activity",
          "provenance": {
            "origin": "derived",
            "source_section_id": null,
            "source_page": null,
            "raw_phrase": null,
            "confidence": 1.0,
            "verified": true,
            "note": "a column of scheduled activities",
            "reviewer_accepted": false
          },
          "terminology": null
        },
        "default": {
          "value": "Visit 5 (Week 4)",
          "provenance": {
            "origin": "derived",
            "source_section_id": null,
            "source_page": null,
            "raw_phrase": null,
            "confidence": 1.0,
            "verified": true,
            "note": "the next column",
            "reviewer_accepted": false
          },
          "terminology": null
        },
        "condition": {
          "value": null,
          "provenance": null,
          "terminology": null
        },
        "epoch": {
          "value": "Treatment",
          "provenance": {
            "origin": "extracted",
            "source_section_id": "app-protocol-attachment-lzzt-1-schedule-of-e",
            "source_page": 53,
            "raw_phrase": null,
            "confidence": 0.8,
            "verified": true,
            "note": "the epoch the model placed this column in",
            "reviewer_accepted": false
          },
          "terminology": null
        },
        "encounter": {
          "value": "Visit 4 (Week 2)",
          "provenance": {
            "origin": "extracted",
            "source_section_id": "app-protocol-attachment-lzzt-1-schedule-of-e",
            "source_page": 53,
            "raw_phrase": null,
            "confidence": 0.8,
            "verified": true,
            "note": "the visit this timepoint happens at",
            "reviewer_accepted": false
          },
          "terminology": null
        }
      },
      {
        "row_id": null,
        "timeline": {
          "value": "Main Timeline",
          "provenance": {
            "origin": "derived",
            "source_section_id": null,
            "source_page": null,
            "raw_phrase": null,
            "confidence": 1.0,
            "verified": true,
            "note": "the timeline this column belongs to",
            "reviewer_accepted": false
          },
          "terminology": null
        },
        "name": {
          "value": "Visit 5 (Week 4)",
          "provenance": {
            "origin": "derived",
            "source_section_id": null,
            "source_page": null,
            "raw_phrase": null,
            "confidence": 1.0,
            "verified": true,
            "note": "generated from the visit heading",
            "reviewer_accepted": false
          },
          "terminology": null
        },
        "label": {
          "value": "Visit 5 (Week 4)",
          "provenance": {
            "origin": "extracted",
            "source_section_id": "app-protocol-attachment-lzzt-1-schedule-of-e",
            "source_page": 53,
            "raw_phrase": "4",
            "confidence": 0.85,
            "verified": true,
            "note": null,
            "reviewer_accepted": false
          },
          "terminology": null
        },
        "description": {
          "value": null,
          "provenance": null,
          "terminology": null
        },
        "type": {
          "value": "Activity",
          "provenance": {
            "origin": "derived",
            "source_section_id": null,
            "source_page": null,
            "raw_phrase": null,
            "confidence": 1.0,
            "verified": true,
            "note": "a column of scheduled activities",
            "reviewer_accepted": false
          },
          "terminology": null
        },
        "default": {
          "value": "Visit 7 (Week 6)",
          "provenance": {
            "origin": "derived",
            "source_section_id": null,
            "source_page": null,
            "raw_phrase": null,
            "confidence": 1.0,
            "verified": true,
            "note": "the next column",
            "reviewer_accepted": false
          },
          "terminology": null
        },
        "condition": {
          "value": null,
          "provenance": null,
          "terminology": null
        },
        "epoch": {
          "value": "Treatment",
          "provenance": {
            "origin": "extracted",
            "source_section_id": "app-protocol-attachment-lzzt-1-schedule-of-e",
            "source_page": 53,
            "raw_phrase": null,
            "confidence": 0.8,
            "verified": true,
            "note": "the epoch the model placed this column in",
            "reviewer_accepted": false
          },
          "terminology": null
        },
        "encounter": {
          "value": "Visit 5 (Week 4)",
          "provenance": {
            "origin": "extracted",
            "source_section_id": "app-protocol-attachment-lzzt-1-schedule-of-e",
            "source_page": 53,
            "raw_phrase": null,
            "confidence": 0.8,
            "verified": true,
            "note": "the visit this timepoint happens at",
            "reviewer_accepted": false
          },
          "terminology": null
        }
      },
      {
        "row_id": null,
        "timeline": {
          "value": "Main Timeline",
          "provenance": {
            "origin": "derived",
            "source_section_id": null,
            "source_page": null,
            "raw_phrase": null,
            "confidence": 1.0,
            "verified": true,
            "note": "the timeline this column belongs to",
            "reviewer_accepted": false
          },
          "terminology": null
        },
        "name": {
          "value": "Visit 7 (Week 6)",
          "provenance": {
            "origin": "derived",
            "source_section_id": null,
            "source_page": null,
            "raw_phrase": null,
            "confidence": 1.0,
            "verified": true,
            "note": "generated from the visit heading",
            "reviewer_accepted": false
          },
          "terminology": null
        },
        "label": {
          "value": "Visit 7 (Week 6)",
          "provenance": {
            "origin": "extracted",
            "source_section_id": "app-protocol-attachment-lzzt-1-schedule-of-e",
            "source_page": 53,
            "raw_phrase": "6",
            "confidence": 0.85,
            "verified": true,
            "note": null,
            "reviewer_accepted": false
          },
          "terminology": null
        },
        "description": {
          "value": null,
          "provenance": null,
          "terminology": null
        },
        "type": {
          "value": "Activity",
          "provenance": {
            "origin": "derived",
            "source_section_id": null,
            "source_page": null,
            "raw_phrase": null,
            "confidence": 1.0,
            "verified": true,
            "note": "a column of scheduled activities",
            "reviewer_accepted": false
          },
          "terminology": null
        },
        "default": {
          "value": "Visit 8 (Week 8)",
          "provenance": {
            "origin": "derived",
            "source_section_id": null,
            "source_page": null,
            "raw_phrase": null,
            "confidence": 1.0,
            "verified": true,
            "note": "the next column",
            "reviewer_accepted": false
          },
          "terminology": null
        },
        "condition": {
          "value": null,
          "provenance": null,
          "terminology": null
        },
        "epoch": {
          "value": "Treatment",
          "provenance": {
            "origin": "extracted",
            "source_section_id": "app-protocol-attachment-lzzt-1-schedule-of-e",
            "source_page": 53,
            "raw_phrase": null,
            "confidence": 0.8,
            "verified": true,
            "note": "the epoch the model placed this column in",
            "reviewer_accepted": false
          },
          "terminology": null
        },
        "encounter": {
          "value": "Visit 7 (Week 6)",
          "provenance": {
            "origin": "extracted",
            "source_section_id": "app-protocol-attachment-lzzt-1-schedule-of-e",
            "source_page": 53,
            "raw_phrase": null,
            "confidence": 0.8,
            "verified": true,
            "note": "the visit this timepoint happens at",
            "reviewer_accepted": false
          },
          "terminology": null
        }
      },
      {
        "row_id": null,
        "timeline": {
          "value": "Main Timeline",
          "provenance": {
            "origin": "derived",
            "source_section_id": null,
            "source_page": null,
            "raw_phrase": null,
            "confidence": 1.0,
            "verified": true,
            "note": "the timeline this column belongs to",
            "reviewer_accepted": false
          },
          "terminology": null
        },
        "name": {
          "value": "Visit 8 (Week 8)",
          "provenance": {
            "origin": "derived",
            "source_section_id": null,
            "source_page": null,
            "raw_phrase": null,
            "confidence": 1.0,
            "verified": true,
            "note": "generated from the visit heading",
            "reviewer_accepted": false
          },
          "terminology": null
        },
        "label": {
          "value": "Visit 8 (Week 8)",
          "provenance": {
            "origin": "extracted",
            "source_section_id": "app-protocol-attachment-lzzt-1-schedule-of-e",
            "source_page": 53,
            "raw_phrase": "8",
            "confidence": 0.85,
            "verified": true,
            "note": null,
            "reviewer_accepted": false
          },
          "terminology": null
        },
        "description": {
          "value": null,
          "provenance": null,
          "terminology": null
        },
        "type": {
          "value": "Activity",
          "provenance": {
            "origin": "derived",
            "source_section_id": null,
            "source_page": null,
            "raw_phrase": null,
            "confidence": 1.0,
            "verified": true,
            "note": "a column of scheduled activities",
            "reviewer_accepted": false
          },
          "terminology": null
        },
        "default": {
          "value": "Visit 9 (Week 12)",
          "provenance": {
            "origin": "derived",
            "source_section_id": null,
            "source_page": null,
            "raw_phrase": null,
            "confidence": 1.0,
            "verified": true,
            "note": "the next column",
            "reviewer_accepted": false
          },
          "terminology": null
        },
        "condition": {
          "value": null,
          "provenance": null,
          "terminology": null
        },
        "epoch": {
          "value": "Treatment",
          "provenance": {
            "origin": "extracted",
            "source_section_id": "app-protocol-attachment-lzzt-1-schedule-of-e",
            "source_page": 53,
            "raw_phrase": null,
            "confidence": 0.8,
            "verified": true,
            "note": "the epoch the model placed this column in",
            "reviewer_accepted": false
          },
          "terminology": null
        },
        "encounter": {
          "value": "Visit 8 (Week 8)",
          "provenance": {
            "origin": "extracted",
            "source_section_id": "app-protocol-attachment-lzzt-1-schedule-of-e",
            "source_page": 53,
            "raw_phrase": null,
            "confidence": 0.8,
            "verified": true,
            "note": "the visit this timepoint happens at",
            "reviewer_accepted": false
          },
          "terminology": null
        }
      },
      {
        "row_id": null,
        "timeline": {
          "value": "Main Timeline",
          "provenance": {
            "origin": "derived",
            "source_section_id": null,
            "source_page": null,
            "raw_phrase": null,
            "confidence": 1.0,
            "verified": true,
            "note": "the timeline this column belongs to",
            "reviewer_accepted": false
          },
          "terminology": null
        },
        "name": {
          "value": "Visit 9 (Week 12)",
          "provenance": {
            "origin": "derived",
            "source_section_id": null,
            "source_page": null,
            "raw_phrase": null,
            "confidence": 1.0,
            "verified": true,
            "note": "generated from the visit heading",
            "reviewer_accepted": false
          },
          "terminology": null
        },
        "label": {
          "value": "Visit 9 (Week 12)",
          "provenance": {
            "origin": "extracted",
            "source_section_id": "app-protocol-attachment-lzzt-1-schedule-of-e",
            "source_page": 54,
            "raw_phrase": "12",
            "confidence": 0.85,
            "verified": true,
            "note": null,
            "reviewer_accepted": false
          },
          "terminology": null
        },
        "description": {
          "value": null,
          "provenance": null,
          "terminology": null
        },
        "type": {
          "value": "Activity",
          "provenance": {
            "origin": "derived",
            "source_section_id": null,
            "source_page": null,
            "raw_phrase": null,
            "confidence": 1.0,
            "verified": true,
            "note": "a column of scheduled activities",
            "reviewer_accepted": false
          },
          "terminology": null
        },
        "default": {
          "value": "Visit 10 (Week 16)",
          "provenance": {
            "origin": "derived",
            "source_section_id": null,
            "source_page": null,
            "raw_phrase": null,
            "confidence": 1.0,
            "verified": true,
            "note": "the next column",
            "reviewer_accepted": false
          },
          "terminology": null
        },
        "condition": {
          "value": null,
          "provenance": null,
          "terminology": null
        },
        "epoch": {
          "value": "Treatment",
          "provenance": {
            "origin": "extracted",
            "source_section_id": "app-protocol-attachment-lzzt-1-schedule-of-e",
            "source_page": 54,
            "raw_phrase": null,
            "confidence": 0.8,
            "verified": true,
            "note": "the epoch the model placed this column in",
            "reviewer_accepted": false
          },
          "terminology": null
        },
        "encounter": {
          "value": "Visit 9 (Week 12)",
          "provenance": {
            "origin": "extracted",
            "source_section_id": "app-protocol-attachment-lzzt-1-schedule-of-e",
            "source_page": 54,
            "raw_phrase": null,
            "confidence": 0.8,
            "verified": true,
            "note": "the visit this timepoint happens at",
            "reviewer_accepted": false
          },
          "terminology": null
        }
      },
      {
        "row_id": null,
        "timeline": {
          "value": "Main Timeline",
          "provenance": {
            "origin": "derived",
            "source_section_id": null,
            "source_page": null,
            "raw_phrase": null,
            "confidence": 1.0,
            "verified": true,
            "note": "the timeline this column belongs to",
            "reviewer_accepted": false
          },
          "terminology": null
        },
        "name": {
          "value": "Visit 10 (Week 16)",
          "provenance": {
            "origin": "derived",
            "source_section_id": null,
            "source_page": null,
            "raw_phrase": null,
            "confidence": 1.0,
            "verified": true,
            "note": "generated from the visit heading",
            "reviewer_accepted": false
          },
          "terminology": null
        },
        "label": {
          "value": "Visit 10 (Week 16)",
          "provenance": {
            "origin": "extracted",
            "source_section_id": "app-protocol-attachment-lzzt-1-schedule-of-e",
            "source_page": 54,
            "raw_phrase": "16",
            "confidence": 0.85,
            "verified": true,
            "note": null,
            "reviewer_accepted": false
          },
          "terminology": null
        },
        "description": {
          "value": null,
          "provenance": null,
          "terminology": null
        },
        "type": {
          "value": "Activity",
          "provenance": {
            "origin": "derived",
            "source_section_id": null,
            "source_page": null,
            "raw_phrase": null,
            "confidence": 1.0,
            "verified": true,
            "note": "a column of scheduled activities",
            "reviewer_accepted": false
          },
          "terminology": null
        },
        "default": {
          "value": "Visit 11 (Week 20)",
          "provenance": {
            "origin": "derived",
            "source_section_id": null,
            "source_page": null,
            "raw_phrase": null,
            "confidence": 1.0,
            "verified": true,
            "note": "the next column",
            "reviewer_accepted": false
          },
          "terminology": null
        },
        "condition": {
          "value": null,
          "provenance": null,
          "terminology": null
        },
        "epoch": {
          "value": "Treatment",
          "provenance": {
            "origin": "extracted",
            "source_section_id": "app-protocol-attachment-lzzt-1-schedule-of-e",
            "source_page": 54,
            "raw_phrase": null,
            "confidence": 0.8,
            "verified": true,
            "note": "the epoch the model placed this column in",
            "reviewer_accepted": false
          },
          "terminology": null
        },
        "encounter": {
          "value": "Visit 10 (Week 16)",
          "provenance": {
            "origin": "extracted",
            "source_section_id": "app-protocol-attachment-lzzt-1-schedule-of-e",
            "source_page": 54,
            "raw_phrase": null,
            "confidence": 0.8,
            "verified": true,
            "note": "the visit this timepoint happens at",
            "reviewer_accepted": false
          },
          "terminology": null
        }
      },
      {
        "row_id": null,
        "timeline": {
          "value": "Main Timeline",
          "provenance": {
            "origin": "derived",
            "source_section_id": null,
            "source_page": null,
            "raw_phrase": null,
            "confidence": 1.0,
            "verified": true,
            "note": "the timeline this column belongs to",
            "reviewer_accepted": false
          },
          "terminology": null
        },
        "name": {
          "value": "Visit 11 (Week 20)",
          "provenance": {
            "origin": "derived",
            "source_section_id": null,
            "source_page": null,
            "raw_phrase": null,
            "confidence": 1.0,
            "verified": true,
            "note": "generated from the visit heading",
            "reviewer_accepted": false
          },
          "terminology": null
        },
        "label": {
          "value": "Visit 11 (Week 20)",
          "provenance": {
            "origin": "extracted",
            "source_section_id": "app-protocol-attachment-lzzt-1-schedule-of-e",
            "source_page": 54,
            "raw_phrase": "20",
            "confidence": 0.85,
            "verified": true,
            "note": null,
            "reviewer_accepted": false
          },
          "terminology": null
        },
        "description": {
          "value": null,
          "provenance": null,
          "terminology": null
        },
        "type": {
          "value": "Activity",
          "provenance": {
            "origin": "derived",
            "source_section_id": null,
            "source_page": null,
            "raw_phrase": null,
            "confidence": 1.0,
            "verified": true,
            "note": "a column of scheduled activities",
            "reviewer_accepted": false
          },
          "terminology": null
        },
        "default": {
          "value": "Visit 12 (Week 24)",
          "provenance": {
            "origin": "derived",
            "source_section_id": null,
            "source_page": null,
            "raw_phrase": null,
            "confidence": 1.0,
            "verified": true,
            "note": "the next column",
            "reviewer_accepted": false
          },
          "terminology": null
        },
        "condition": {
          "value": null,
          "provenance": null,
          "terminology": null
        },
        "epoch": {
          "value": "Treatment",
          "provenance": {
            "origin": "extracted",
            "source_section_id": "app-protocol-attachment-lzzt-1-schedule-of-e",
            "source_page": 54,
            "raw_phrase": null,
            "confidence": 0.8,
            "verified": true,
            "note": "the epoch the model placed this column in",
            "reviewer_accepted": false
          },
          "terminology": null
        },
        "encounter": {
          "value": "Visit 11 (Week 20)",
          "provenance": {
            "origin": "extracted",
            "source_section_id": "app-protocol-attachment-lzzt-1-schedule-of-e",
            "source_page": 54,
            "raw_phrase": null,
            "confidence": 0.8,
            "verified": true,
            "note": "the visit this timepoint happens at",
            "reviewer_accepted": false
          },
          "terminology": null
        }
      },
      {
        "row_id": null,
        "timeline": {
          "value": "Main Timeline",
          "provenance": {
            "origin": "derived",
            "source_section_id": null,
            "source_page": null,
            "raw_phrase": null,
            "confidence": 1.0,
            "verified": true,
            "note": "the timeline this column belongs to",
            "reviewer_accepted": false
          },
          "terminology": null
        },
        "name": {
          "value": "Visit 12 (Week 24)",
          "provenance": {
            "origin": "derived",
            "source_section_id": null,
            "source_page": null,
            "raw_phrase": null,
            "confidence": 1.0,
            "verified": true,
            "note": "generated from the visit heading",
            "reviewer_accepted": false
          },
          "terminology": null
        },
        "label": {
          "value": "Visit 12 (Week 24)",
          "provenance": {
            "origin": "extracted",
            "source_section_id": "app-protocol-attachment-lzzt-1-schedule-of-e",
            "source_page": 54,
            "raw_phrase": "24",
            "confidence": 0.85,
            "verified": true,
            "note": null,
            "reviewer_accepted": false
          },
          "terminology": null
        },
        "description": {
          "value": null,
          "provenance": null,
          "terminology": null
        },
        "type": {
          "value": "Activity",
          "provenance": {
            "origin": "derived",
            "source_section_id": null,
            "source_page": null,
            "raw_phrase": null,
            "confidence": 1.0,
            "verified": true,
            "note": "a column of scheduled activities",
            "reviewer_accepted": false
          },
          "terminology": null
        },
        "default": {
          "value": "Visit 13 (Week 26)",
          "provenance": {
            "origin": "derived",
            "source_section_id": null,
            "source_page": null,
            "raw_phrase": null,
            "confidence": 1.0,
            "verified": true,
            "note": "the next column",
            "reviewer_accepted": false
          },
          "terminology": null
        },
        "condition": {
          "value": null,
          "provenance": null,
          "terminology": null
        },
        "epoch": {
          "value": "Treatment",
          "provenance": {
            "origin": "extracted",
            "source_section_id": "app-protocol-attachment-lzzt-1-schedule-of-e",
            "source_page": 54,
            "raw_phrase": null,
            "confidence": 0.8,
            "verified": true,
            "note": "the epoch the model placed this column in",
            "reviewer_accepted": false
          },
          "terminology": null
        },
        "encounter": {
          "value": "Visit 12 (Week 24)",
          "provenance": {
            "origin": "extracted",
            "source_section_id": "app-protocol-attachment-lzzt-1-schedule-of-e",
            "source_page": 54,
            "raw_phrase": null,
            "confidence": 0.8,
            "verified": true,
            "note": "the visit this timepoint happens at",
            "reviewer_accepted": false
          },
          "terminology": null
        }
      },
      {
        "row_id": null,
        "timeline": {
          "value": "Main Timeline",
          "provenance": {
            "origin": "derived",
            "source_section_id": null,
            "source_page": null,
            "raw_phrase": null,
            "confidence": 1.0,
            "verified": true,
            "note": "the timeline this column belongs to",
            "reviewer_accepted": false
          },
          "terminology": null
        },
        "name": {
          "value": "Visit 13 (Week 26)",
          "provenance": {
            "origin": "derived",
            "source_section_id": null,
            "source_page": null,
            "raw_phrase": null,
            "confidence": 1.0,
            "verified": true,
            "note": "generated from the visit heading",
            "reviewer_accepted": false
          },
          "terminology": null
        },
        "label": {
          "value": "Visit 13 (Week 26)",
          "provenance": {
            "origin": "extracted",
            "source_section_id": "app-protocol-attachment-lzzt-1-schedule-of-e",
            "source_page": 54,
            "raw_phrase": "26",
            "confidence": 0.85,
            "verified": true,
            "note": null,
            "reviewer_accepted": false
          },
          "terminology": null
        },
        "description": {
          "value": null,
          "provenance": null,
          "terminology": null
        },
        "type": {
          "value": "Activity",
          "provenance": {
            "origin": "derived",
            "source_section_id": null,
            "source_page": null,
            "raw_phrase": null,
            "confidence": 1.0,
            "verified": true,
            "note": "a column of scheduled activities",
            "reviewer_accepted": false
          },
          "terminology": null
        },
        "default": {
          "value": "Early Termination (ET)",
          "provenance": {
            "origin": "derived",
            "source_section_id": null,
            "source_page": null,
            "raw_phrase": null,
            "confidence": 1.0,
            "verified": true,
            "note": "the next column",
            "reviewer_accepted": false
          },
          "terminology": null
        },
        "condition": {
          "value": null,
          "provenance": null,
          "terminology": null
        },
        "epoch": {
          "value": "Treatment",
          "provenance": {
            "origin": "extracted",
            "source_section_id": "app-protocol-attachment-lzzt-1-schedule-of-e",
            "source_page": 54,
            "raw_phrase": null,
            "confidence": 0.8,
            "verified": true,
            "note": "the epoch the model placed this column in",
            "reviewer_accepted": false
          },
          "terminology": null
        },
        "encounter": {
          "value": "Visit 13 (Week 26)",
          "provenance": {
            "origin": "extracted",
            "source_section_id": "app-protocol-attachment-lzzt-1-schedule-of-e",
            "source_page": 54,
            "raw_phrase": null,
            "confidence": 0.8,
            "verified": true,
            "note": "the visit this timepoint happens at",
            "reviewer_accepted": false
          },
          "terminology": null
        }
      },
      {
        "row_id": null,
        "timeline": {
          "value": "Main Timeline",
          "provenance": {
            "origin": "derived",
            "source_section_id": null,
            "source_page": null,
            "raw_phrase": null,
            "confidence": 1.0,
            "verified": true,
            "note": "the timeline this column belongs to",
            "reviewer_accepted": false
          },
          "terminology": null
        },
        "name": {
          "value": "Early Termination (ET)",
          "provenance": {
            "origin": "derived",
            "source_section_id": null,
            "source_page": null,
            "raw_phrase": null,
            "confidence": 1.0,
            "verified": true,
            "note": "generated from the visit heading",
            "reviewer_accepted": false
          },
          "terminology": null
        },
        "label": {
          "value": "Early Termination (ET)",
          "provenance": {
            "origin": "extracted",
            "source_section_id": "app-protocol-attachment-lzzt-1-schedule-of-e",
            "source_page": 54,
            "raw_phrase": "ET",
            "confidence": 0.8,
            "verified": true,
            "note": null,
            "reviewer_accepted": false
          },
          "terminology": null
        },
        "description": {
          "value": null,
          "provenance": null,
          "terminology": null
        },
        "type": {
          "value": "Activity",
          "provenance": {
            "origin": "derived",
            "source_section_id": null,
            "source_page": null,
            "raw_phrase": null,
            "confidence": 1.0,
            "verified": true,
            "note": "a column of scheduled activities",
            "reviewer_accepted": false
          },
          "terminology": null
        },
        "default": {
          "value": "Retrieval (RT)",
          "provenance": {
            "origin": "derived",
            "source_section_id": null,
            "source_page": null,
            "raw_phrase": null,
            "confidence": 1.0,
            "verified": true,
            "note": "the next column",
            "reviewer_accepted": false
          },
          "terminology": null
        },
        "condition": {
          "value": null,
          "provenance": null,
          "terminology": null
        },
        "epoch": {
          "value": "Treatment",
          "provenance": {
            "origin": "extracted",
            "source_section_id": "app-protocol-attachment-lzzt-1-schedule-of-e",
            "source_page": 54,
            "raw_phrase": null,
            "confidence": 0.8,
            "verified": true,
            "note": "the epoch the model placed this column in",
            "reviewer_accepted": false
          },
          "terminology": null
        },
        "encounter": {
          "value": "Early Termination (ET)",
          "provenance": {
            "origin": "extracted",
            "source_section_id": "app-protocol-attachment-lzzt-1-schedule-of-e",
            "source_page": 54,
            "raw_phrase": null,
            "confidence": 0.8,
            "verified": true,
            "note": "the visit this timepoint happens at",
            "reviewer_accepted": false
          },
          "terminology": null
        }
      },
      {
        "row_id": null,
        "timeline": {
          "value": "Main Timeline",
          "provenance": {
            "origin": "derived",
            "source_section_id": null,
            "source_page": null,
            "raw_phrase": null,
            "confidence": 1.0,
            "verified": true,
            "note": "the timeline this column belongs to",
            "reviewer_accepted": false
          },
          "terminology": null
        },
        "name": {
          "value": "Retrieval (RT)",
          "provenance": {
            "origin": "derived",
            "source_section_id": null,
            "source_page": null,
            "raw_phrase": null,
            "confidence": 1.0,
            "verified": true,
            "note": "generated from the visit heading",
            "reviewer_accepted": false
          },
          "terminology": null
        },
        "label": {
          "value": "Retrieval (RT)",
          "provenance": {
            "origin": "extracted",
            "source_section_id": "app-protocol-attachment-lzzt-1-schedule-of-e",
            "source_page": 54,
            "raw_phrase": "RT",
            "confidence": 0.8,
            "verified": true,
            "note": null,
            "reviewer_accepted": false
          },
          "terminology": null
        },
        "description": {
          "value": null,
          "provenance": null,
          "terminology": null
        },
        "type": {
          "value": "Activity",
          "provenance": {
            "origin": "derived",
            "source_section_id": null,
            "source_page": null,
            "raw_phrase": null,
            "confidence": 1.0,
            "verified": true,
            "note": "a column of scheduled activities",
            "reviewer_accepted": false
          },
          "terminology": null
        },
        "default": {
          "value": "(Exit)",
          "provenance": {
            "origin": "derived",
            "source_section_id": null,
            "source_page": null,
            "raw_phrase": null,
            "confidence": 1.0,
            "verified": true,
            "note": "the timeline ends after its last column",
            "reviewer_accepted": false
          },
          "terminology": null
        },
        "condition": {
          "value": null,
          "provenance": null,
          "terminology": null
        },
        "epoch": {
          "value": "Follow-up",
          "provenance": {
            "origin": "extracted",
            "source_section_id": "app-protocol-attachment-lzzt-1-schedule-of-e",
            "source_page": 54,
            "raw_phrase": null,
            "confidence": 0.8,
            "verified": true,
            "note": "the epoch the model placed this column in",
            "reviewer_accepted": false
          },
          "terminology": null
        },
        "encounter": {
          "value": "Retrieval (RT)",
          "provenance": {
            "origin": "extracted",
            "source_section_id": "app-protocol-attachment-lzzt-1-schedule-of-e",
            "source_page": 54,
            "raw_phrase": null,
            "confidence": 0.8,
            "verified": true,
            "note": "the visit this timepoint happens at",
            "reviewer_accepted": false
          },
          "terminology": null
        }
      }
    ],
    "activities": [
      {
        "row_id": null,
        "name": {
          "value": "Informed consent",
          "provenance": {
            "origin": "derived",
            "source_section_id": null,
            "source_page": null,
            "raw_phrase": null,
            "confidence": 1.0,
            "verified": true,
            "note": "generated from the activity row name",
            "reviewer_accepted": false
          },
          "terminology": null
        },
        "label": {
          "value": "Informed consent",
          "provenance": {
            "origin": "extracted",
            "source_section_id": "app-protocol-attachment-lzzt-1-schedule-of-e",
            "source_page": 53,
            "raw_phrase": "Informed consent",
            "confidence": 0.95,
            "verified": true,
            "note": null,
            "reviewer_accepted": false
          },
          "terminology": null
        },
        "description": {
          "value": null,
          "provenance": null,
          "terminology": null
        }
      },
      {
        "row_id": null,
        "name": {
          "value": "Patient number assigned",
          "provenance": {
            "origin": "derived",
            "source_section_id": null,
            "source_page": null,
            "raw_phrase": null,
            "confidence": 1.0,
            "verified": true,
            "note": "generated from the activity row name",
            "reviewer_accepted": false
          },
          "terminology": null
        },
        "label": {
          "value": "Patient number assigned",
          "provenance": {
            "origin": "extracted",
            "source_section_id": "app-protocol-attachment-lzzt-1-schedule-of-e",
            "source_page": 53,
            "raw_phrase": "Patient number assigned",
            "confidence": 0.95,
            "verified": true,
            "note": null,
            "reviewer_accepted": false
          },
          "terminology": null
        },
        "description": {
          "value": null,
          "provenance": null,
          "terminology": null
        }
      },
      {
        "row_id": null,
        "name": {
          "value": "Hachinski ≤4",
          "provenance": {
            "origin": "derived",
            "source_section_id": null,
            "source_page": null,
            "raw_phrase": null,
            "confidence": 1.0,
            "verified": true,
            "note": "generated from the activity row name",
            "reviewer_accepted": false
          },
          "terminology": null
        },
        "label": {
          "value": "Hachinski ≤4",
          "provenance": {
            "origin": "extracted",
            "source_section_id": "app-protocol-attachment-lzzt-1-schedule-of-e",
            "source_page": 53,
            "raw_phrase": "Hachinski ≤4",
            "confidence": 0.95,
            "verified": true,
            "note": null,
            "reviewer_accepted": false
          },
          "terminology": null
        },
        "description": {
          "value": null,
          "provenance": null,
          "terminology": null
        }
      },
      {
        "row_id": null,
        "name": {
          "value": "MMSE 10-23",
          "provenance": {
            "origin": "derived",
            "source_section_id": null,
            "source_page": null,
            "raw_phrase": null,
            "confidence": 1.0,
            "verified": true,
            "note": "generated from the activity row name",
            "reviewer_accepted": false
          },
          "terminology": null
        },
        "label": {
          "value": "MMSE 10-23",
          "provenance": {
            "origin": "extracted",
            "source_section_id": "app-protocol-attachment-lzzt-1-schedule-of-e",
            "source_page": 53,
            "raw_phrase": "MMSE 10-23",
            "confidence": 0.95,
            "verified": true,
            "note": null,
            "reviewer_accepted": false
          },
          "terminology": null
        },
        "description": {
          "value": null,
          "provenance": null,
          "terminology": null
        }
      },
      {
        "row_id": null,
        "name": {
          "value": "Physical examination",
          "provenance": {
            "origin": "derived",
            "source_section_id": null,
            "source_page": null,
            "raw_phrase": null,
            "confidence": 1.0,
            "verified": true,
            "note": "generated from the activity row name",
            "reviewer_accepted": false
          },
          "terminology": null
        },
        "label": {
          "value": "Physical examination",
          "provenance": {
            "origin": "extracted",
            "source_section_id": "app-protocol-attachment-lzzt-1-schedule-of-e",
            "source_page": 53,
            "raw_phrase": "Physical examination",
            "confidence": 0.95,
            "verified": true,
            "note": null,
            "reviewer_accepted": false
          },
          "terminology": null
        },
        "description": {
          "value": null,
          "provenance": null,
          "terminology": null
        }
      },
      {
        "row_id": null,
        "name": {
          "value": "Medical History",
          "provenance": {
            "origin": "derived",
            "source_section_id": null,
            "source_page": null,
            "raw_phrase": null,
            "confidence": 1.0,
            "verified": true,
            "note": "generated from the activity row name",
            "reviewer_accepted": false
          },
          "terminology": null
        },
        "label": {
          "value": "Medical History",
          "provenance": {
            "origin": "extracted",
            "source_section_id": "app-protocol-attachment-lzzt-1-schedule-of-e",
            "source_page": 53,
            "raw_phrase": "Medical History",
            "confidence": 0.95,
            "verified": true,
            "note": null,
            "reviewer_accepted": false
          },
          "terminology": null
        },
        "description": {
          "value": null,
          "provenance": null,
          "terminology": null
        }
      },
      {
        "row_id": null,
        "name": {
          "value": "Habits",
          "provenance": {
            "origin": "derived",
            "source_section_id": null,
            "source_page": null,
            "raw_phrase": null,
            "confidence": 1.0,
            "verified": true,
            "note": "generated from the activity row name",
            "reviewer_accepted": false
          },
          "terminology": null
        },
        "label": {
          "value": "Habits",
          "provenance": {
            "origin": "extracted",
            "source_section_id": "app-protocol-attachment-lzzt-1-schedule-of-e",
            "source_page": 53,
            "raw_phrase": "Habits",
            "confidence": 0.95,
            "verified": true,
            "note": null,
            "reviewer_accepted": false
          },
          "terminology": null
        },
        "description": {
          "value": null,
          "provenance": null,
          "terminology": null
        }
      },
      {
        "row_id": null,
        "name": {
          "value": "Chest x-ray",
          "provenance": {
            "origin": "derived",
            "source_section_id": null,
            "source_page": null,
            "raw_phrase": null,
            "confidence": 1.0,
            "verified": true,
            "note": "generated from the activity row name",
            "reviewer_accepted": false
          },
          "terminology": null
        },
        "label": {
          "value": "Chest x-ray",
          "provenance": {
            "origin": "extracted",
            "source_section_id": "app-protocol-attachment-lzzt-1-schedule-of-e",
            "source_page": 53,
            "raw_phrase": "Chest x-ray",
            "confidence": 0.95,
            "verified": true,
            "note": null,
            "reviewer_accepted": false
          },
          "terminology": null
        },
        "description": {
          "value": null,
          "provenance": null,
          "terminology": null
        }
      },
      {
        "row_id": null,
        "name": {
          "value": "Apo E genotyping",
          "provenance": {
            "origin": "derived",
            "source_section_id": null,
            "source_page": null,
            "raw_phrase": null,
            "confidence": 1.0,
            "verified": true,
            "note": "generated from the activity row name",
            "reviewer_accepted": false
          },
          "terminology": null
        },
        "label": {
          "value": "Apo E genotyping",
          "provenance": {
            "origin": "extracted",
            "source_section_id": "app-protocol-attachment-lzzt-1-schedule-of-e",
            "source_page": 53,
            "raw_phrase": "Apo E genotyping",
            "confidence": 0.95,
            "verified": true,
            "note": null,
            "reviewer_accepted": false
          },
          "terminology": null
        },
        "description": {
          "value": null,
          "provenance": null,
          "terminology": null
        }
      },
      {
        "row_id": null,
        "name": {
          "value": "Patient randomized",
          "provenance": {
            "origin": "derived",
            "source_section_id": null,
            "source_page": null,
            "raw_phrase": null,
            "confidence": 1.0,
            "verified": true,
            "note": "generated from the activity row name",
            "reviewer_accepted": false
          },
          "terminology": null
        },
        "label": {
          "value": "Patient randomized",
          "provenance": {
            "origin": "extracted",
            "source_section_id": "app-protocol-attachment-lzzt-1-schedule-of-e",
            "source_page": 53,
            "raw_phrase": "Patient randomized",
            "confidence": 0.95,
            "verified": true,
            "note": null,
            "reviewer_accepted": false
          },
          "terminology": null
        },
        "description": {
          "value": null,
          "provenance": null,
          "terminology": null
        }
      },
      {
        "row_id": null,
        "name": {
          "value": "Vital signs/Temperature",
          "provenance": {
            "origin": "derived",
            "source_section_id": null,
            "source_page": null,
            "raw_phrase": null,
            "confidence": 1.0,
            "verified": true,
            "note": "generated from the activity row name",
            "reviewer_accepted": false
          },
          "terminology": null
        },
        "label": {
          "value": "Vital signs/Temperature",
          "provenance": {
            "origin": "extracted",
            "source_section_id": "app-protocol-attachment-lzzt-1-schedule-of-e",
            "source_page": 53,
            "raw_phrase": "Vital signs/Temperature",
            "confidence": 0.95,
            "verified": true,
            "note": null,
            "reviewer_accepted": false
          },
          "terminology": null
        },
        "description": {
          "value": null,
          "provenance": null,
          "terminology": null
        }
      },
      {
        "row_id": null,
        "name": {
          "value": "Ambulatory ECG placed",
          "provenance": {
            "origin": "derived",
            "source_section_id": null,
            "source_page": null,
            "raw_phrase": null,
            "confidence": 1.0,
            "verified": true,
            "note": "generated from the activity row name",
            "reviewer_accepted": false
          },
          "terminology": null
        },
        "label": {
          "value": "Ambulatory ECG placed",
          "provenance": {
            "origin": "extracted",
            "source_section_id": "app-protocol-attachment-lzzt-1-schedule-of-e",
            "source_page": 53,
            "raw_phrase": "Ambulatory ECG placed",
            "confidence": 0.95,
            "verified": true,
            "note": null,
            "reviewer_accepted": false
          },
          "terminology": null
        },
        "description": {
          "value": null,
          "provenance": null,
          "terminology": null
        }
      },
      {
        "row_id": null,
        "name": {
          "value": "Ambulatory ECG removed",
          "provenance": {
            "origin": "derived",
            "source_section_id": null,
            "source_page": null,
            "raw_phrase": null,
            "confidence": 1.0,
            "verified": true,
            "note": "generated from the activity row name",
            "reviewer_accepted": false
          },
          "terminology": null
        },
        "label": {
          "value": "Ambulatory ECG removed",
          "provenance": {
            "origin": "extracted",
            "source_section_id": "app-protocol-attachment-lzzt-1-schedule-of-e",
            "source_page": 53,
            "raw_phrase": "Ambulatory ECG removed",
            "confidence": 0.95,
            "verified": true,
            "note": null,
            "reviewer_accepted": false
          },
          "terminology": null
        },
        "description": {
          "value": null,
          "provenance": null,
          "terminology": null
        }
      },
      {
        "row_id": null,
        "name": {
          "value": "ECG",
          "provenance": {
            "origin": "derived",
            "source_section_id": null,
            "source_page": null,
            "raw_phrase": null,
            "confidence": 1.0,
            "verified": true,
            "note": "generated from the activity row name",
            "reviewer_accepted": false
          },
          "terminology": null
        },
        "label": {
          "value": "ECG",
          "provenance": {
            "origin": "extracted",
            "source_section_id": "app-protocol-attachment-lzzt-1-schedule-of-e",
            "source_page": 53,
            "raw_phrase": "ECG",
            "confidence": 0.95,
            "verified": true,
            "note": null,
            "reviewer_accepted": false
          },
          "terminology": null
        },
        "description": {
          "value": null,
          "provenance": null,
          "terminology": null
        }
      },
      {
        "row_id": null,
        "name": {
          "value": "Placebo TTS test",
          "provenance": {
            "origin": "derived",
            "source_section_id": null,
            "source_page": null,
            "raw_phrase": null,
            "confidence": 1.0,
            "verified": true,
            "note": "generated from the activity row name",
            "reviewer_accepted": false
          },
          "terminology": null
        },
        "label": {
          "value": "Placebo TTS test",
          "provenance": {
            "origin": "extracted",
            "source_section_id": "app-protocol-attachment-lzzt-1-schedule-of-e",
            "source_page": 53,
            "raw_phrase": "Placebo TTS test",
            "confidence": 0.95,
            "verified": true,
            "note": null,
            "reviewer_accepted": false
          },
          "terminology": null
        },
        "description": {
          "value": null,
          "provenance": null,
          "terminology": null
        }
      },
      {
        "row_id": null,
        "name": {
          "value": "CT Scan (if not within last year and patient passes all othe",
          "provenance": {
            "origin": "derived",
            "source_section_id": null,
            "source_page": null,
            "raw_phrase": null,
            "confidence": 1.0,
            "verified": true,
            "note": "generated from the activity row name",
            "reviewer_accepted": false
          },
          "terminology": null
        },
        "label": {
          "value": "CT Scan (if not within last year and patient passes all other screens)",
          "provenance": {
            "origin": "extracted",
            "source_section_id": "app-protocol-attachment-lzzt-1-schedule-of-e",
            "source_page": 53,
            "raw_phrase": "CT Scan (if not within last year and patient passes all other screens)",
            "confidence": 0.9,
            "verified": true,
            "note": null,
            "reviewer_accepted": false
          },
          "terminology": null
        },
        "description": {
          "value": null,
          "provenance": null,
          "terminology": null
        }
      },
      {
        "row_id": null,
        "name": {
          "value": "Concomitant Medications",
          "provenance": {
            "origin": "derived",
            "source_section_id": null,
            "source_page": null,
            "raw_phrase": null,
            "confidence": 1.0,
            "verified": true,
            "note": "generated from the activity row name",
            "reviewer_accepted": false
          },
          "terminology": null
        },
        "label": {
          "value": "Concomitant Medications",
          "provenance": {
            "origin": "extracted",
            "source_section_id": "app-protocol-attachment-lzzt-1-schedule-of-e",
            "source_page": 53,
            "raw_phrase": "Concomitant Medications",
            "confidence": 0.95,
            "verified": true,
            "note": null,
            "reviewer_accepted": false
          },
          "terminology": null
        },
        "description": {
          "value": null,
          "provenance": null,
          "terminology": null
        }
      },
      {
        "row_id": null,
        "name": {
          "value": "Laboratory (Chem/Hemat):",
          "provenance": {
            "origin": "derived",
            "source_section_id": null,
            "source_page": null,
            "raw_phrase": null,
            "confidence": 1.0,
            "verified": true,
            "note": "generated from the activity row name",
            "reviewer_accepted": false
          },
          "terminology": null
        },
        "label": {
          "value": "Laboratory (Chem/Hemat):",
          "provenance": {
            "origin": "extracted",
            "source_section_id": "app-protocol-attachment-lzzt-1-schedule-of-e",
            "source_page": 53,
            "raw_phrase": "Laboratory (Chem/Hemat):",
            "confidence": 0.9,
            "verified": true,
            "note": null,
            "reviewer_accepted": false
          },
          "terminology": null
        },
        "description": {
          "value": null,
          "provenance": null,
          "terminology": null
        }
      },
      {
        "row_id": null,
        "name": {
          "value": "Laboratory (Urinalysis)",
          "provenance": {
            "origin": "derived",
            "source_section_id": null,
            "source_page": null,
            "raw_phrase": null,
            "confidence": 1.0,
            "verified": true,
            "note": "generated from the activity row name",
            "reviewer_accepted": false
          },
          "terminology": null
        },
        "label": {
          "value": "Laboratory (Urinalysis)",
          "provenance": {
            "origin": "extracted",
            "source_section_id": "app-protocol-attachment-lzzt-1-schedule-of-e",
            "source_page": 53,
            "raw_phrase": "Laboratory (Urinalysis)",
            "confidence": 0.9,
            "verified": true,
            "note": null,
            "reviewer_accepted": false
          },
          "terminology": null
        },
        "description": {
          "value": null,
          "provenance": null,
          "terminology": null
        }
      },
      {
        "row_id": null,
        "name": {
          "value": "Plasma Specimen (Xanomeline)",
          "provenance": {
            "origin": "derived",
            "source_section_id": null,
            "source_page": null,
            "raw_phrase": null,
            "confidence": 1.0,
            "verified": true,
            "note": "generated from the activity row name",
            "reviewer_accepted": false
          },
          "terminology": null
        },
        "label": {
          "value": "Plasma Specimen (Xanomeline)",
          "provenance": {
            "origin": "extracted",
            "source_section_id": "app-protocol-attachment-lzzt-1-schedule-of-e",
            "source_page": 53,
            "raw_phrase": "Plasma Specimen (Xanomeline)",
            "confidence": 0.9,
            "verified": true,
            "note": null,
            "reviewer_accepted": false
          },
          "terminology": null
        },
        "description": {
          "value": null,
          "provenance": null,
          "terminology": null
        }
      },
      {
        "row_id": null,
        "name": {
          "value": "Hemoglobin A1C",
          "provenance": {
            "origin": "derived",
            "source_section_id": null,
            "source_page": null,
            "raw_phrase": null,
            "confidence": 1.0,
            "verified": true,
            "note": "generated from the activity row name",
            "reviewer_accepted": false
          },
          "terminology": null
        },
        "label": {
          "value": "Hemoglobin A1C",
          "provenance": {
            "origin": "extracted",
            "source_section_id": "app-protocol-attachment-lzzt-1-schedule-of-e",
            "source_page": 53,
            "raw_phrase": "Hemoglobin A1C",
            "confidence": 0.9,
            "verified": true,
            "note": null,
            "reviewer_accepted": false
          },
          "terminology": null
        },
        "description": {
          "value": null,
          "provenance": null,
          "terminology": null
        }
      },
      {
        "row_id": null,
        "name": {
          "value": "Study drug record",
          "provenance": {
            "origin": "derived",
            "source_section_id": null,
            "source_page": null,
            "raw_phrase": null,
            "confidence": 1.0,
            "verified": true,
            "note": "generated from the activity row name",
            "reviewer_accepted": false
          },
          "terminology": null
        },
        "label": {
          "value": "Study drug record",
          "provenance": {
            "origin": "extracted",
            "source_section_id": "app-protocol-attachment-lzzt-1-schedule-of-e",
            "source_page": 53,
            "raw_phrase": "Study drug record",
            "confidence": 0.85,
            "verified": true,
            "note": null,
            "reviewer_accepted": false
          },
          "terminology": null
        },
        "description": {
          "value": null,
          "provenance": null,
          "terminology": null
        }
      },
      {
        "row_id": null,
        "name": {
          "value": "Medications dispensed",
          "provenance": {
            "origin": "derived",
            "source_section_id": null,
            "source_page": null,
            "raw_phrase": null,
            "confidence": 1.0,
            "verified": true,
            "note": "generated from the activity row name",
            "reviewer_accepted": false
          },
          "terminology": null
        },
        "label": {
          "value": "Medications dispensed",
          "provenance": {
            "origin": "extracted",
            "source_section_id": "app-protocol-attachment-lzzt-1-schedule-of-e",
            "source_page": 53,
            "raw_phrase": "Medications dispensed",
            "confidence": 0.85,
            "verified": true,
            "note": null,
            "reviewer_accepted": false
          },
          "terminology": null
        },
        "description": {
          "value": null,
          "provenance": null,
          "terminology": null
        }
      },
      {
        "row_id": null,
        "name": {
          "value": "Medications returned",
          "provenance": {
            "origin": "derived",
            "source_section_id": null,
            "source_page": null,
            "raw_phrase": null,
            "confidence": 1.0,
            "verified": true,
            "note": "generated from the activity row name",
            "reviewer_accepted": false
          },
          "terminology": null
        },
        "label": {
          "value": "Medications returned",
          "provenance": {
            "origin": "extracted",
            "source_section_id": "app-protocol-attachment-lzzt-1-schedule-of-e",
            "source_page": 53,
            "raw_phrase": "Medications returned",
            "confidence": 0.85,
            "verified": true,
            "note": null,
            "reviewer_accepted": false
          },
          "terminology": null
        },
        "description": {
          "value": null,
          "provenance": null,
          "terminology": null
        }
      },
      {
        "row_id": null,
        "name": {
          "value": "TTS Acceptability Survey",
          "provenance": {
            "origin": "derived",
            "source_section_id": null,
            "source_page": null,
            "raw_phrase": null,
            "confidence": 1.0,
            "verified": true,
            "note": "generated from the activity row name",
            "reviewer_accepted": false
          },
          "terminology": null
        },
        "label": {
          "value": "TTS Acceptability Survey",
          "provenance": {
            "origin": "extracted",
            "source_section_id": "app-protocol-attachment-lzzt-1-schedule-of-e",
            "source_page": 53,
            "raw_phrase": "TTS Acceptability Survey",
            "confidence": 0.9,
            "verified": true,
            "note": null,
            "reviewer_accepted": false
          },
          "terminology": null
        },
        "description": {
          "value": null,
          "provenance": null,
          "terminology": null
        }
      },
      {
        "row_id": null,
        "name": {
          "value": "ADAS-Cog",
          "provenance": {
            "origin": "derived",
            "source_section_id": null,
            "source_page": null,
            "raw_phrase": null,
            "confidence": 1.0,
            "verified": true,
            "note": "generated from the activity row name",
            "reviewer_accepted": false
          },
          "terminology": null
        },
        "label": {
          "value": "ADAS-Cog",
          "provenance": {
            "origin": "extracted",
            "source_section_id": "app-protocol-attachment-lzzt-1-schedule-of-e",
            "source_page": 53,
            "raw_phrase": "ADAS-Cog",
            "confidence": 0.9,
            "verified": true,
            "note": null,
            "reviewer_accepted": false
          },
          "terminology": null
        },
        "description": {
          "value": null,
          "provenance": null,
          "terminology": null
        }
      },
      {
        "row_id": null,
        "name": {
          "value": "CIBIC+",
          "provenance": {
            "origin": "derived",
            "source_section_id": null,
            "source_page": null,
            "raw_phrase": null,
            "confidence": 1.0,
            "verified": true,
            "note": "generated from the activity row name",
            "reviewer_accepted": false
          },
          "terminology": null
        },
        "label": {
          "value": "CIBIC+",
          "provenance": {
            "origin": "extracted",
            "source_section_id": "app-protocol-attachment-lzzt-1-schedule-of-e",
            "source_page": 53,
            "raw_phrase": "CIBIC+",
            "confidence": 0.9,
            "verified": true,
            "note": null,
            "reviewer_accepted": false
          },
          "terminology": null
        },
        "description": {
          "value": null,
          "provenance": null,
          "terminology": null
        }
      },
      {
        "row_id": null,
        "name": {
          "value": "DAD",
          "provenance": {
            "origin": "derived",
            "source_section_id": null,
            "source_page": null,
            "raw_phrase": null,
            "confidence": 1.0,
            "verified": true,
            "note": "generated from the activity row name",
            "reviewer_accepted": false
          },
          "terminology": null
        },
        "label": {
          "value": "DAD",
          "provenance": {
            "origin": "extracted",
            "source_section_id": "app-protocol-attachment-lzzt-1-schedule-of-e",
            "source_page": 53,
            "raw_phrase": "DAD",
            "confidence": 0.9,
            "verified": true,
            "note": null,
            "reviewer_accepted": false
          },
          "terminology": null
        },
        "description": {
          "value": null,
          "provenance": null,
          "terminology": null
        }
      },
      {
        "row_id": null,
        "name": {
          "value": "NPI-X",
          "provenance": {
            "origin": "derived",
            "source_section_id": null,
            "source_page": null,
            "raw_phrase": null,
            "confidence": 1.0,
            "verified": true,
            "note": "generated from the activity row name",
            "reviewer_accepted": false
          },
          "terminology": null
        },
        "label": {
          "value": "NPI-X",
          "provenance": {
            "origin": "extracted",
            "source_section_id": "app-protocol-attachment-lzzt-1-schedule-of-e",
            "source_page": 53,
            "raw_phrase": "NPI-X",
            "confidence": 0.9,
            "verified": true,
            "note": null,
            "reviewer_accepted": false
          },
          "terminology": null
        },
        "description": {
          "value": null,
          "provenance": null,
          "terminology": null
        }
      },
      {
        "row_id": null,
        "name": {
          "value": "Adverse events",
          "provenance": {
            "origin": "derived",
            "source_section_id": null,
            "source_page": null,
            "raw_phrase": null,
            "confidence": 1.0,
            "verified": true,
            "note": "generated from the activity row name",
            "reviewer_accepted": false
          },
          "terminology": null
        },
        "label": {
          "value": "Adverse events",
          "provenance": {
            "origin": "extracted",
            "source_section_id": "app-protocol-attachment-lzzt-1-schedule-of-e",
            "source_page": 53,
            "raw_phrase": "Adverse events",
            "confidence": 0.95,
            "verified": true,
            "note": null,
            "reviewer_accepted": false
          },
          "terminology": null
        },
        "description": {
          "value": null,
          "provenance": null,
          "terminology": null
        }
      }
    ],
    "rows": [
      {
        "row_id": null,
        "timeline": {
          "value": "Main Timeline",
          "provenance": {
            "origin": "derived",
            "source_section_id": null,
            "source_page": null,
            "raw_phrase": null,
            "confidence": 1.0,
            "verified": true,
            "note": "the timeline this row belongs to",
            "reviewer_accepted": false
          },
          "terminology": null
        },
        "activity": {
          "value": "Informed consent",
          "provenance": {
            "origin": "derived",
            "source_section_id": null,
            "source_page": null,
            "raw_phrase": null,
            "confidence": 1.0,
            "verified": true,
            "note": "the activity of this row",
            "reviewer_accepted": false
          },
          "terminology": null
        },
        "biomedical_concepts": {
          "value": null,
          "provenance": null,
          "terminology": null
        },
        "scheduled_at": {
          "value": "Visit 1 (Week -2)",
          "provenance": {
            "origin": "extracted",
            "source_section_id": "app-protocol-attachment-lzzt-1-schedule-of-e",
            "source_page": 53,
            "raw_phrase": "Informed consent",
            "confidence": 0.95,
            "verified": true,
            "note": "marks read from the schedule table (page images)",
            "reviewer_accepted": false
          },
          "terminology": null
        }
      },
      {
        "row_id": null,
        "timeline": {
          "value": "Main Timeline",
          "provenance": {
            "origin": "derived",
            "source_section_id": null,
            "source_page": null,
            "raw_phrase": null,
            "confidence": 1.0,
            "verified": true,
            "note": "the timeline this row belongs to",
            "reviewer_accepted": false
          },
          "terminology": null
        },
        "activity": {
          "value": "Patient number assigned",
          "provenance": {
            "origin": "derived",
            "source_section_id": null,
            "source_page": null,
            "raw_phrase": null,
            "confidence": 1.0,
            "verified": true,
            "note": "the activity of this row",
            "reviewer_accepted": false
          },
          "terminology": null
        },
        "biomedical_concepts": {
          "value": null,
          "provenance": null,
          "terminology": null
        },
        "scheduled_at": {
          "value": "Visit 1 (Week -2)",
          "provenance": {
            "origin": "extracted",
            "source_section_id": "app-protocol-attachment-lzzt-1-schedule-of-e",
            "source_page": 53,
            "raw_phrase": "Patient number assigned",
            "confidence": 0.95,
            "verified": true,
            "note": "marks read from the schedule table (page images)",
            "reviewer_accepted": false
          },
          "terminology": null
        }
      },
      {
        "row_id": null,
        "timeline": {
          "value": "Main Timeline",
          "provenance": {
            "origin": "derived",
            "source_section_id": null,
            "source_page": null,
            "raw_phrase": null,
            "confidence": 1.0,
            "verified": true,
            "note": "the timeline this row belongs to",
            "reviewer_accepted": false
          },
          "terminology": null
        },
        "activity": {
          "value": "Hachinski ≤4",
          "provenance": {
            "origin": "derived",
            "source_section_id": null,
            "source_page": null,
            "raw_phrase": null,
            "confidence": 1.0,
            "verified": true,
            "note": "the activity of this row",
            "reviewer_accepted": false
          },
          "terminology": null
        },
        "biomedical_concepts": {
          "value": null,
          "provenance": null,
          "terminology": null
        },
        "scheduled_at": {
          "value": "Visit 1 (Week -2)",
          "provenance": {
            "origin": "extracted",
            "source_section_id": "app-protocol-attachment-lzzt-1-schedule-of-e",
            "source_page": 53,
            "raw_phrase": "Hachinski ≤4",
            "confidence": 0.95,
            "verified": true,
            "note": "marks read from the schedule table (page images)",
            "reviewer_accepted": false
          },
          "terminology": null
        }
      },
      {
        "row_id": null,
        "timeline": {
          "value": "Main Timeline",
          "provenance": {
            "origin": "derived",
            "source_section_id": null,
            "source_page": null,
            "raw_phrase": null,
            "confidence": 1.0,
            "verified": true,
            "note": "the timeline this row belongs to",
            "reviewer_accepted": false
          },
          "terminology": null
        },
        "activity": {
          "value": "MMSE 10-23",
          "provenance": {
            "origin": "derived",
            "source_section_id": null,
            "source_page": null,
            "raw_phrase": null,
            "confidence": 1.0,
            "verified": true,
            "note": "the activity of this row",
            "reviewer_accepted": false
          },
          "terminology": null
        },
        "biomedical_concepts": {
          "value": null,
          "provenance": null,
          "terminology": null
        },
        "scheduled_at": {
          "value": "Visit 1 (Week -2)",
          "provenance": {
            "origin": "extracted",
            "source_section_id": "app-protocol-attachment-lzzt-1-schedule-of-e",
            "source_page": 53,
            "raw_phrase": "MMSE 10-23",
            "confidence": 0.95,
            "verified": true,
            "note": "marks read from the schedule table (page images)",
            "reviewer_accepted": false
          },
          "terminology": null
        }
      },
      {
        "row_id": null,
        "timeline": {
          "value": "Main Timeline",
          "provenance": {
            "origin": "derived",
            "source_section_id": null,
            "source_page": null,
            "raw_phrase": null,
            "confidence": 1.0,
            "verified": true,
            "note": "the timeline this row belongs to",
            "reviewer_accepted": false
          },
          "terminology": null
        },
        "activity": {
          "value": "Physical examination",
          "provenance": {
            "origin": "derived",
            "source_section_id": null,
            "source_page": null,
            "raw_phrase": null,
            "confidence": 1.0,
            "verified": true,
            "note": "the activity of this row",
            "reviewer_accepted": false
          },
          "terminology": null
        },
        "biomedical_concepts": {
          "value": null,
          "provenance": null,
          "terminology": null
        },
        "scheduled_at": {
          "value": "Visit 1 (Week -2), Visit 13 (Week 26), Early Termination (ET)",
          "provenance": {
            "origin": "extracted",
            "source_section_id": "app-protocol-attachment-lzzt-1-schedule-of-e",
            "source_page": 53,
            "raw_phrase": "Physical examination",
            "confidence": 0.9,
            "verified": true,
            "note": "marks read from the schedule table (page images)",
            "reviewer_accepted": false
          },
          "terminology": null
        }
      },
      {
        "row_id": null,
        "timeline": {
          "value": "Main Timeline",
          "provenance": {
            "origin": "derived",
            "source_section_id": null,
            "source_page": null,
            "raw_phrase": null,
            "confidence": 1.0,
            "verified": true,
            "note": "the timeline this row belongs to",
            "reviewer_accepted": false
          },
          "terminology": null
        },
        "activity": {
          "value": "Medical History",
          "provenance": {
            "origin": "derived",
            "source_section_id": null,
            "source_page": null,
            "raw_phrase": null,
            "confidence": 1.0,
            "verified": true,
            "note": "the activity of this row",
            "reviewer_accepted": false
          },
          "terminology": null
        },
        "biomedical_concepts": {
          "value": null,
          "provenance": null,
          "terminology": null
        },
        "scheduled_at": {
          "value": "Visit 1 (Week -2)",
          "provenance": {
            "origin": "extracted",
            "source_section_id": "app-protocol-attachment-lzzt-1-schedule-of-e",
            "source_page": 53,
            "raw_phrase": "Medical History",
            "confidence": 0.95,
            "verified": true,
            "note": "marks read from the schedule table (page images)",
            "reviewer_accepted": false
          },
          "terminology": null
        }
      },
      {
        "row_id": null,
        "timeline": {
          "value": "Main Timeline",
          "provenance": {
            "origin": "derived",
            "source_section_id": null,
            "source_page": null,
            "raw_phrase": null,
            "confidence": 1.0,
            "verified": true,
            "note": "the timeline this row belongs to",
            "reviewer_accepted": false
          },
          "terminology": null
        },
        "activity": {
          "value": "Habits",
          "provenance": {
            "origin": "derived",
            "source_section_id": null,
            "source_page": null,
            "raw_phrase": null,
            "confidence": 1.0,
            "verified": true,
            "note": "the activity of this row",
            "reviewer_accepted": false
          },
          "terminology": null
        },
        "biomedical_concepts": {
          "value": null,
          "provenance": null,
          "terminology": null
        },
        "scheduled_at": {
          "value": "Visit 1 (Week -2)",
          "provenance": {
            "origin": "extracted",
            "source_section_id": "app-protocol-attachment-lzzt-1-schedule-of-e",
            "source_page": 53,
            "raw_phrase": "Habits",
            "confidence": 0.95,
            "verified": true,
            "note": "marks read from the schedule table (page images)",
            "reviewer_accepted": false
          },
          "terminology": null
        }
      },
      {
        "row_id": null,
        "timeline": {
          "value": "Main Timeline",
          "provenance": {
            "origin": "derived",
            "source_section_id": null,
            "source_page": null,
            "raw_phrase": null,
            "confidence": 1.0,
            "verified": true,
            "note": "the timeline this row belongs to",
            "reviewer_accepted": false
          },
          "terminology": null
        },
        "activity": {
          "value": "Chest x-ray",
          "provenance": {
            "origin": "derived",
            "source_section_id": null,
            "source_page": null,
            "raw_phrase": null,
            "confidence": 1.0,
            "verified": true,
            "note": "the activity of this row",
            "reviewer_accepted": false
          },
          "terminology": null
        },
        "biomedical_concepts": {
          "value": null,
          "provenance": null,
          "terminology": null
        },
        "scheduled_at": {
          "value": "Visit 1 (Week -2)",
          "provenance": {
            "origin": "extracted",
            "source_section_id": "app-protocol-attachment-lzzt-1-schedule-of-e",
            "source_page": 53,
            "raw_phrase": "Chest x-ray",
            "confidence": 0.95,
            "verified": true,
            "note": "marks read from the schedule table (page images)",
            "reviewer_accepted": false
          },
          "terminology": null
        }
      },
      {
        "row_id": null,
        "timeline": {
          "value": "Main Timeline",
          "provenance": {
            "origin": "derived",
            "source_section_id": null,
            "source_page": null,
            "raw_phrase": null,
            "confidence": 1.0,
            "verified": true,
            "note": "the timeline this row belongs to",
            "reviewer_accepted": false
          },
          "terminology": null
        },
        "activity": {
          "value": "Apo E genotyping",
          "provenance": {
            "origin": "derived",
            "source_section_id": null,
            "source_page": null,
            "raw_phrase": null,
            "confidence": 1.0,
            "verified": true,
            "note": "the activity of this row",
            "reviewer_accepted": false
          },
          "terminology": null
        },
        "biomedical_concepts": {
          "value": null,
          "provenance": null,
          "terminology": null
        },
        "scheduled_at": {
          "value": "Visit 4 (Week 2)",
          "provenance": {
            "origin": "extracted",
            "source_section_id": "app-protocol-attachment-lzzt-1-schedule-of-e",
            "source_page": 53,
            "raw_phrase": "Apo E genotyping",
            "confidence": 0.9,
            "verified": true,
            "note": "marks read from the schedule table (page images)",
            "reviewer_accepted": false
          },
          "terminology": null
        }
      },
      {
        "row_id": null,
        "timeline": {
          "value": "Main Timeline",
          "provenance": {
            "origin": "derived",
            "source_section_id": null,
            "source_page": null,
            "raw_phrase": null,
            "confidence": 1.0,
            "verified": true,
            "note": "the timeline this row belongs to",
            "reviewer_accepted": false
          },
          "terminology": null
        },
        "activity": {
          "value": "Patient randomized",
          "provenance": {
            "origin": "derived",
            "source_section_id": null,
            "source_page": null,
            "raw_phrase": null,
            "confidence": 1.0,
            "verified": true,
            "note": "the activity of this row",
            "reviewer_accepted": false
          },
          "terminology": null
        },
        "biomedical_concepts": {
          "value": null,
          "provenance": null,
          "terminology": null
        },
        "scheduled_at": {
          "value": "Visit 3 (Week 0)",
          "provenance": {
            "origin": "extracted",
            "source_section_id": "app-protocol-attachment-lzzt-1-schedule-of-e",
            "source_page": 53,
            "raw_phrase": "Patient randomized",
            "confidence": 0.95,
            "verified": true,
            "note": "marks read from the schedule table (page images)",
            "reviewer_accepted": false
          },
          "terminology": null
        }
      },
      {
        "row_id": null,
        "timeline": {
          "value": "Main Timeline",
          "provenance": {
            "origin": "derived",
            "source_section_id": null,
            "source_page": null,
            "raw_phrase": null,
            "confidence": 1.0,
            "verified": true,
            "note": "the timeline this row belongs to",
            "reviewer_accepted": false
          },
          "terminology": null
        },
        "activity": {
          "value": "Vital signs/Temperature",
          "provenance": {
            "origin": "derived",
            "source_section_id": null,
            "source_page": null,
            "raw_phrase": null,
            "confidence": 1.0,
            "verified": true,
            "note": "the activity of this row",
            "reviewer_accepted": false
          },
          "terminology": null
        },
        "biomedical_concepts": {
          "value": null,
          "provenance": null,
          "terminology": null
        },
        "scheduled_at": {
          "value": "Visit 1 (Week -2), Visit 2 (Week -.3), Visit 3 (Week 0), Visit 4 (Week 2), Visit 5 (Week 4), Visit 7 (Week 6), Visit 8 (Week 8), Visit 9 (Week 12), Visit 10 (Week 16), Visit 11 (Week 20), Visit 12 (Week 24), Visit 13 (Week 26), Early Termination (ET), Retrieval (RT)",
          "provenance": {
            "origin": "extracted",
            "source_section_id": "app-protocol-attachment-lzzt-1-schedule-of-e",
            "source_page": 53,
            "raw_phrase": "Vital signs/Temperature",
            "confidence": 0.9,
            "verified": true,
            "note": "marks read from the schedule table (page images)",
            "reviewer_accepted": false
          },
          "terminology": null
        }
      },
      {
        "row_id": null,
        "timeline": {
          "value": "Main Timeline",
          "provenance": {
            "origin": "derived",
            "source_section_id": null,
            "source_page": null,
            "raw_phrase": null,
            "confidence": 1.0,
            "verified": true,
            "note": "the timeline this row belongs to",
            "reviewer_accepted": false
          },
          "terminology": null
        },
        "activity": {
          "value": "Ambulatory ECG placed",
          "provenance": {
            "origin": "derived",
            "source_section_id": null,
            "source_page": null,
            "raw_phrase": null,
            "confidence": 1.0,
            "verified": true,
            "note": "the activity of this row",
            "reviewer_accepted": false
          },
          "terminology": null
        },
        "biomedical_concepts": {
          "value": null,
          "provenance": null,
          "terminology": null
        },
        "scheduled_at": {
          "value": "Visit 2 (Week -.3)",
          "provenance": {
            "origin": "extracted",
            "source_section_id": "app-protocol-attachment-lzzt-1-schedule-of-e",
            "source_page": 53,
            "raw_phrase": "Ambulatory ECG placed",
            "confidence": 0.9,
            "verified": true,
            "note": "marks read from the schedule table (page images)",
            "reviewer_accepted": false
          },
          "terminology": null
        }
      },
      {
        "row_id": null,
        "timeline": {
          "value": "Main Timeline",
          "provenance": {
            "origin": "derived",
            "source_section_id": null,
            "source_page": null,
            "raw_phrase": null,
            "confidence": 1.0,
            "verified": true,
            "note": "the timeline this row belongs to",
            "reviewer_accepted": false
          },
          "terminology": null
        },
        "activity": {
          "value": "Ambulatory ECG removed",
          "provenance": {
            "origin": "derived",
            "source_section_id": null,
            "source_page": null,
            "raw_phrase": null,
            "confidence": 1.0,
            "verified": true,
            "note": "the activity of this row",
            "reviewer_accepted": false
          },
          "terminology": null
        },
        "biomedical_concepts": {
          "value": null,
          "provenance": null,
          "terminology": null
        },
        "scheduled_at": {
          "value": "Visit 3 (Week 0)",
          "provenance": {
            "origin": "extracted",
            "source_section_id": "app-protocol-attachment-lzzt-1-schedule-of-e",
            "source_page": 53,
            "raw_phrase": "Ambulatory ECG removed",
            "confidence": 0.9,
            "verified": true,
            "note": "marks read from the schedule table (page images)",
            "reviewer_accepted": false
          },
          "terminology": null
        }
      },
      {
        "row_id": null,
        "timeline": {
          "value": "Main Timeline",
          "provenance": {
            "origin": "derived",
            "source_section_id": null,
            "source_page": null,
            "raw_phrase": null,
            "confidence": 1.0,
            "verified": true,
            "note": "the timeline this row belongs to",
            "reviewer_accepted": false
          },
          "terminology": null
        },
        "activity": {
          "value": "ECG",
          "provenance": {
            "origin": "derived",
            "source_section_id": null,
            "source_page": null,
            "raw_phrase": null,
            "confidence": 1.0,
            "verified": true,
            "note": "the activity of this row",
            "reviewer_accepted": false
          },
          "terminology": null
        },
        "biomedical_concepts": {
          "value": null,
          "provenance": null,
          "terminology": null
        },
        "scheduled_at": {
          "value": "Visit 1 (Week -2), Visit 4 (Week 2), Visit 5 (Week 4), Visit 7 (Week 6), Visit 8 (Week 8), Visit 9 (Week 12), Visit 10 (Week 16), Visit 11 (Week 20), Visit 12 (Week 24), Visit 13 (Week 26), Early Termination (ET)",
          "provenance": {
            "origin": "extracted",
            "source_section_id": "app-protocol-attachment-lzzt-1-schedule-of-e",
            "source_page": 53,
            "raw_phrase": "ECG",
            "confidence": 0.85,
            "verified": true,
            "note": "marks read from the schedule table (page images)",
            "reviewer_accepted": false
          },
          "terminology": null
        }
      },
      {
        "row_id": null,
        "timeline": {
          "value": "Main Timeline",
          "provenance": {
            "origin": "derived",
            "source_section_id": null,
            "source_page": null,
            "raw_phrase": null,
            "confidence": 1.0,
            "verified": true,
            "note": "the timeline this row belongs to",
            "reviewer_accepted": false
          },
          "terminology": null
        },
        "activity": {
          "value": "Placebo TTS test",
          "provenance": {
            "origin": "derived",
            "source_section_id": null,
            "source_page": null,
            "raw_phrase": null,
            "confidence": 1.0,
            "verified": true,
            "note": "the activity of this row",
            "reviewer_accepted": false
          },
          "terminology": null
        },
        "biomedical_concepts": {
          "value": null,
          "provenance": null,
          "terminology": null
        },
        "scheduled_at": {
          "value": "Visit 1 (Week -2)",
          "provenance": {
            "origin": "extracted",
            "source_section_id": "app-protocol-attachment-lzzt-1-schedule-of-e",
            "source_page": 53,
            "raw_phrase": "Placebo TTS test",
            "confidence": 0.9,
            "verified": true,
            "note": "marks read from the schedule table (page images)",
            "reviewer_accepted": false
          },
          "terminology": null
        }
      },
      {
        "row_id": null,
        "timeline": {
          "value": "Main Timeline",
          "provenance": {
            "origin": "derived",
            "source_section_id": null,
            "source_page": null,
            "raw_phrase": null,
            "confidence": 1.0,
            "verified": true,
            "note": "the timeline this row belongs to",
            "reviewer_accepted": false
          },
          "terminology": null
        },
        "activity": {
          "value": "CT Scan (if not within last year and patient passes all othe",
          "provenance": {
            "origin": "derived",
            "source_section_id": null,
            "source_page": null,
            "raw_phrase": null,
            "confidence": 1.0,
            "verified": true,
            "note": "the activity of this row",
            "reviewer_accepted": false
          },
          "terminology": null
        },
        "biomedical_concepts": {
          "value": null,
          "provenance": null,
          "terminology": null
        },
        "scheduled_at": {
          "value": "Visit 1 (Week -2)",
          "provenance": {
            "origin": "extracted",
            "source_section_id": "app-protocol-attachment-lzzt-1-schedule-of-e",
            "source_page": 53,
            "raw_phrase": "CT Scan (if not within last year and patient passes all other screens)",
            "confidence": 0.9,
            "verified": true,
            "note": "marks read from the schedule table (page images)",
            "reviewer_accepted": false
          },
          "terminology": null
        }
      },
      {
        "row_id": null,
        "timeline": {
          "value": "Main Timeline",
          "provenance": {
            "origin": "derived",
            "source_section_id": null,
            "source_page": null,
            "raw_phrase": null,
            "confidence": 1.0,
            "verified": true,
            "note": "the timeline this row belongs to",
            "reviewer_accepted": false
          },
          "terminology": null
        },
        "activity": {
          "value": "Concomitant Medications",
          "provenance": {
            "origin": "derived",
            "source_section_id": null,
            "source_page": null,
            "raw_phrase": null,
            "confidence": 1.0,
            "verified": true,
            "note": "the activity of this row",
            "reviewer_accepted": false
          },
          "terminology": null
        },
        "biomedical_concepts": {
          "value": null,
          "provenance": null,
          "terminology": null
        },
        "scheduled_at": {
          "value": "Visit 1 (Week -2), Visit 3 (Week 0), Visit 4 (Week 2), Visit 5 (Week 4), Visit 7 (Week 6), Visit 8 (Week 8), Visit 9 (Week 12), Visit 10 (Week 16), Visit 11 (Week 20), Visit 12 (Week 24), Visit 13 (Week 26), Early Termination (ET), Retrieval (RT)",
          "provenance": {
            "origin": "extracted",
            "source_section_id": "app-protocol-attachment-lzzt-1-schedule-of-e",
            "source_page": 53,
            "raw_phrase": "Concomitant Medications",
            "confidence": 0.85,
            "verified": true,
            "note": "marks read from the schedule table (page images)",
            "reviewer_accepted": false
          },
          "terminology": null
        }
      },
      {
        "row_id": null,
        "timeline": {
          "value": "Main Timeline",
          "provenance": {
            "origin": "derived",
            "source_section_id": null,
            "source_page": null,
            "raw_phrase": null,
            "confidence": 1.0,
            "verified": true,
            "note": "the timeline this row belongs to",
            "reviewer_accepted": false
          },
          "terminology": null
        },
        "activity": {
          "value": "Laboratory (Chem/Hemat):",
          "provenance": {
            "origin": "derived",
            "source_section_id": null,
            "source_page": null,
            "raw_phrase": null,
            "confidence": 1.0,
            "verified": true,
            "note": "the activity of this row",
            "reviewer_accepted": false
          },
          "terminology": null
        },
        "biomedical_concepts": {
          "value": null,
          "provenance": null,
          "terminology": null
        },
        "scheduled_at": {
          "value": "Visit 1 (Week -2), Visit 4 (Week 2), Visit 5 (Week 4), Visit 7 (Week 6), Visit 8 (Week 8), Visit 9 (Week 12), Visit 10 (Week 16), Visit 11 (Week 20), Visit 12 (Week 24), Visit 13 (Week 26), Early Termination (ET)",
          "provenance": {
            "origin": "extracted",
            "source_section_id": "app-protocol-attachment-lzzt-1-schedule-of-e",
            "source_page": 53,
            "raw_phrase": "Laboratory (Chem/Hemat):",
            "confidence": 0.85,
            "verified": true,
            "note": "marks read from the schedule table (page images)",
            "reviewer_accepted": false
          },
          "terminology": null
        }
      },
      {
        "row_id": null,
        "timeline": {
          "value": "Main Timeline",
          "provenance": {
            "origin": "derived",
            "source_section_id": null,
            "source_page": null,
            "raw_phrase": null,
            "confidence": 1.0,
            "verified": true,
            "note": "the timeline this row belongs to",
            "reviewer_accepted": false
          },
          "terminology": null
        },
        "activity": {
          "value": "Laboratory (Urinalysis)",
          "provenance": {
            "origin": "derived",
            "source_section_id": null,
            "source_page": null,
            "raw_phrase": null,
            "confidence": 1.0,
            "verified": true,
            "note": "the activity of this row",
            "reviewer_accepted": false
          },
          "terminology": null
        },
        "biomedical_concepts": {
          "value": null,
          "provenance": null,
          "terminology": null
        },
        "scheduled_at": {
          "value": "Visit 1 (Week -2), Visit 4 (Week 2), Visit 9 (Week 12), Visit 12 (Week 24), Early Termination (ET)",
          "provenance": {
            "origin": "extracted",
            "source_section_id": "app-protocol-attachment-lzzt-1-schedule-of-e",
            "source_page": 53,
            "raw_phrase": "Laboratory (Urinalysis)",
            "confidence": 0.85,
            "verified": true,
            "note": "marks read from the schedule table (page images)",
            "reviewer_accepted": false
          },
          "terminology": null
        }
      },
      {
        "row_id": null,
        "timeline": {
          "value": "Main Timeline",
          "provenance": {
            "origin": "derived",
            "source_section_id": null,
            "source_page": null,
            "raw_phrase": null,
            "confidence": 1.0,
            "verified": true,
            "note": "the timeline this row belongs to",
            "reviewer_accepted": false
          },
          "terminology": null
        },
        "activity": {
          "value": "Plasma Specimen (Xanomeline)",
          "provenance": {
            "origin": "derived",
            "source_section_id": null,
            "source_page": null,
            "raw_phrase": null,
            "confidence": 1.0,
            "verified": true,
            "note": "the activity of this row",
            "reviewer_accepted": false
          },
          "terminology": null
        },
        "biomedical_concepts": {
          "value": null,
          "provenance": null,
          "terminology": null
        },
        "scheduled_at": {
          "value": "Visit 3 (Week 0), Visit 4 (Week 2), Visit 5 (Week 4), Visit 7 (Week 6), Visit 9 (Week 12), Visit 11 (Week 20), Early Termination (ET)",
          "provenance": {
            "origin": "extracted",
            "source_section_id": "app-protocol-attachment-lzzt-1-schedule-of-e",
            "source_page": 53,
            "raw_phrase": "Plasma Specimen (Xanomeline)",
            "confidence": 0.8,
            "verified": true,
            "note": "marks read from the schedule table (page images)",
            "reviewer_accepted": false
          },
          "terminology": null
        }
      },
      {
        "row_id": null,
        "timeline": {
          "value": "Main Timeline",
          "provenance": {
            "origin": "derived",
            "source_section_id": null,
            "source_page": null,
            "raw_phrase": null,
            "confidence": 1.0,
            "verified": true,
            "note": "the timeline this row belongs to",
            "reviewer_accepted": false
          },
          "terminology": null
        },
        "activity": {
          "value": "Hemoglobin A1C",
          "provenance": {
            "origin": "derived",
            "source_section_id": null,
            "source_page": null,
            "raw_phrase": null,
            "confidence": 1.0,
            "verified": true,
            "note": "the activity of this row",
            "reviewer_accepted": false
          },
          "terminology": null
        },
        "biomedical_concepts": {
          "value": null,
          "provenance": null,
          "terminology": null
        },
        "scheduled_at": {
          "value": "Visit 1 (Week -2)",
          "provenance": {
            "origin": "extracted",
            "source_section_id": "app-protocol-attachment-lzzt-1-schedule-of-e",
            "source_page": 53,
            "raw_phrase": "Hemoglobin A1C",
            "confidence": 0.85,
            "verified": true,
            "note": "marks read from the schedule table (page images)",
